Date;Timestamp;DeviceOrientation;AccelerationX;AccelerationY;AccelerationZ;Label
2022-10-23 17:03:18;1666533798.3916411;faceUp;-0.1360015869140625;-0.2935333251953125;-0.82232666015625;
2022-10-23 17:03:18;1666533798.393353;faceUp;-0.152313232421875;-0.3345794677734375;-0.7257843017578125;
2022-10-23 17:03:18;1666533798.414232;faceUp;-0.1903533935546875;-0.36663818359375;-0.706329345703125;
2022-10-23 17:03:18;1666533798.4644709;faceUp;-0.2126312255859375;-0.4797821044921875;-0.7902374267578125;
2022-10-23 17:03:18;1666533798.5144958;faceUp;-0.1670379638671875;-0.41015625;-0.86505126953125;
2022-10-23 17:03:18;1666533798.564698;faceUp;-0.1141510009765625;-0.43072509765625;-1.0820465087890625;
2022-10-23 17:03:18;1666533798.6147652;faceUp;-0.092864990234375;-0.509429931640625;-1.212738037109375;
2022-10-23 17:03:18;1666533798.665005;faceUp;-0.1436309814453125;-0.432769775390625;-1.390594482421875;
2022-10-23 17:03:18;1666533798.714958;faceUp;-0.1627197265625;-0.3555145263671875;-1.4820556640625;
2022-10-23 17:03:18;1666533798.7652922;faceUp;-0.18194580078125;-0.421722412109375;-0.856414794921875;
2022-10-23 17:03:18;1666533798.815306;faceUp;0.1870880126953125;-0.3064727783203125;-0.8135223388671875;
2022-10-23 17:03:18;1666533798.8655229;faceUp;0.0040283203125;-0.2574005126953125;-0.572418212890625;
2022-10-23 17:03:18;1666533798.915487;faceUp;0.0892486572265625;-0.315887451171875;-0.5245819091796875;
2022-10-23 17:03:18;1666533798.965677;faceUp;0.03302001953125;-0.2937164306640625;-0.559326171875;
2022-10-23 17:03:18;1666533799.015767;faceUp;-0.0164337158203125;-0.5035552978515625;-0.5748138427734375;
2022-10-23 17:03:18;1666533799.0659409;faceUp;-0.108428955078125;-0.7845916748046875;-0.4842376708984375;
2022-10-23 17:03:18;1666533799.115946;faceUp;-0.139739990234375;-0.8117828369140625;-0.6610870361328125;
2022-10-23 17:03:18;1666533799.166131;faceUp;-0.168914794921875;-0.7066650390625;-0.62420654296875;
2022-10-23 17:03:18;1666533799.2162309;faceUp;-0.12060546875;-0.5446624755859375;-0.8851470947265625;
2022-10-23 17:03:18;1666533799.266407;faceUp;0.0595855712890625;-0.3025970458984375;-1.164642333984375;
2022-10-23 17:03:18;1666533799.317052;faceUp;-0.0321502685546875;-0.1963653564453125;-0.598724365234375;
2022-10-23 17:03:18;1666533799.367111;faceUp;0.6692352294921875;0.1294097900390625;-0.9401092529296875;
2022-10-23 17:03:18;1666533799.417511;faceUp;0.2977752685546875;0.3054656982421875;-0.05621337890625;
2022-10-23 17:03:18;1666533799.467135;faceUp;0.381988525390625;0.642730712890625;-0.3306732177734375;
2022-10-23 17:03:18;1666533799.517132;faceUp;0.4705810546875;0.690887451171875;0.09722900390625;
2022-10-23 17:03:18;1666533799.567219;faceUp;0.7225341796875;0.8115692138671875;0.2831268310546875;
2022-10-23 17:03:18;1666533799.6179008;faceUp;2.5279388427734375;0.9337158203125;-0.5465240478515625;
2022-10-23 17:03:18;1666533799.667959;faceUp;2.4448699951171875;0.9139251708984375;-1.1676788330078125;
2022-10-23 17:03:18;1666533799.717907;faceUp;2.6083221435546875;0.645355224609375;-0.809051513671875;
2022-10-23 17:03:18;1666533799.767637;faceUp;1.7376556396484375;0.32147216796875;-0.36224365234375;
2022-10-23 17:03:18;1666533799.817892;faceUp;1.4175567626953125;0.3110809326171875;-0.5446014404296875;
2022-10-23 17:03:18;1666533799.8680182;faceUp;0.9787445068359375;0.6670074462890625;-0.30755615234375;
2022-10-23 17:03:18;1666533799.918037;faceUp;0.820831298828125;0.6454925537109375;-0.1777191162109375;
2022-10-23 17:03:18;1666533799.9679961;faceUp;-0.18316650390625;0.5700531005859375;0.201202392578125;
2022-10-23 17:03:18;1666533800.0183492;faceUp;-0.025909423828125;0.3425750732421875;0.003570556640625;
2022-10-23 17:03:18;1666533800.0686898;faceUp;0.588287353515625;0.256317138671875;0.1072235107421875;
2022-10-23 17:03:18;1666533800.1185942;faceUp;0.9191131591796875;0.228363037109375;0.1237030029296875;
2022-10-23 17:03:18;1666533800.168706;faceUp;1.29180908203125;0.5602264404296875;0.1533050537109375;
2022-10-23 17:03:18;1666533801.4066582;faceUp;1.703125;0.1664581298828125;0.3838653564453125;
2022-10-23 17:03:18;1666533801.41097;faceUp;1.4252471923828125;0.33087158203125;-0.33966064453125;
2022-10-23 17:03:18;1666533801.4112592;faceUp;0.693206787109375;0.253875732421875;0.16650390625;
2022-10-23 17:03:18;1666533801.4114609;faceUp;0.90643310546875;0.316925048828125;0.0595703125;
2022-10-23 17:03:18;1666533801.41165;faceUp;0.6947784423828125;0.2674713134765625;-0.11199951171875;
2022-10-23 17:03:18;1666533801.411837;faceUp;0.4457244873046875;0.423492431640625;0.28790283203125;
2022-10-23 17:03:18;1666533801.4120622;faceUp;0.651458740234375;0.2268829345703125;-0.0572357177734375;
2022-10-23 17:03:18;1666533801.41223;faceUp;0.9295654296875;0.21551513671875;0.140380859375;
2022-10-23 17:03:18;1666533801.4124599;faceUp;1.0430755615234375;0.4621734619140625;0.128662109375;
2022-10-23 17:03:18;1666533801.412668;faceUp;1.1131744384765625;0.769622802734375;0.0724334716796875;
2022-10-23 17:03:18;1666533801.4129062;faceUp;1.7790374755859375;0.7263031005859375;-0.6683197021484375;
2022-10-23 17:03:18;1666533801.413087;faceUp;1.057891845703125;0.3889312744140625;-0.250732421875;
2022-10-23 17:03:18;1666533801.413268;faceUp;1.12994384765625;0.2316436767578125;-0.4692230224609375;
2022-10-23 17:03:18;1666533801.41345;faceUp;0.8906707763671875;0.5922393798828125;-1.3639678955078125;
2022-10-23 17:03:18;1666533801.4136748;faceUp;-0.432373046875;0.6214599609375;0.0269775390625;
2022-10-23 17:03:18;1666533801.413949;faceUp;0.6293792724609375;0.7982940673828125;0.1839752197265625;
2022-10-23 17:03:18;1666533801.414171;faceUp;0.6256256103515625;0.494964599609375;1.36395263671875;
2022-10-23 17:03:18;1666533801.414362;faceUp;0.261138916015625;0.4743499755859375;-0.0500335693359375;
2022-10-23 17:03:18;1666533801.414565;faceUp;0.5906524658203125;0.0196533203125;0.0823516845703125;
2022-10-23 17:03:18;1666533801.414744;faceUp;1.294281005859375;-0.2306365966796875;-0.02716064453125;
2022-10-23 17:03:18;1666533801.414946;faceUp;0.601593017578125;-0.040252685546875;0.4481658935546875;
2022-10-23 17:03:18;1666533801.415189;faceUp;1.5409088134765625;0.3850860595703125;0.014190673828125;
2022-10-23 17:03:18;1666533801.415471;faceUp;1.4831085205078125;0.666473388671875;0.3165283203125;
2022-10-23 17:03:18;1666533801.416498;faceUp;0.617156982421875;1.2934112548828125;-0.0924072265625;
2022-10-23 17:03:18;1666533801.4218721;faceUp;-1.273406982421875;0.6702728271484375;0.3031463623046875;
2022-10-23 17:03:18;1666533801.472073;faceUp;-0.277191162109375;0.670379638671875;0.0714111328125;
2022-10-23 17:03:18;1666533801.5221128;faceUp;0.4573211669921875;1.1743011474609375;-0.2814483642578125;
2022-10-23 17:03:18;1666533801.57233;faceUp;1.3609161376953125;1.23455810546875;0.0313262939453125;
2022-10-23 17:03:18;1666533801.622309;faceUp;0.7456512451171875;0.6823272705078125;0.8649749755859375;
2022-10-23 17:03:18;1666533801.672535;faceUp;0.4168548583984375;0.6372528076171875;0.0540771484375;
2022-10-23 17:03:18;1666533801.72256;faceUp;1.4715423583984375;0.76513671875;0.275238037109375;
2022-10-23 17:03:18;1666533801.77281;faceUp;0.3516998291015625;0.3680572509765625;0.0099334716796875;
2022-10-23 17:03:18;1666533801.822832;faceUp;-1.3841094970703125;1.2735137939453125;0.482574462890625;
2022-10-23 17:03:18;1666533801.873036;faceUp;-0.3233489990234375;0.81829833984375;0.5234375;
2022-10-23 17:03:18;1666533801.923034;faceUp;0.6961517333984375;0.932098388671875;0.3285064697265625;
2022-10-23 17:03:18;1666533801.973453;faceUp;0.546722412109375;2.7968597412109375;-0.657623291015625;
2022-10-23 17:03:18;1666533802.023386;faceUp;-3.1732330322265625;2.139404296875;5.6993255615234375;
2022-10-23 17:03:18;1666533802.073667;faceUp;-0.31494140625;-0.0562591552734375;-0.5265655517578125;
2022-10-23 17:03:18;1666533802.1235418;faceUp;-0.5778350830078125;0.68505859375;0.1429901123046875;
2022-10-23 17:03:18;1666533802.173856;faceUp;0.1600189208984375;0.680419921875;-0.1188812255859375;
2022-10-23 17:03:18;1666533802.223839;faceUp;-0.0462799072265625;0.8768310546875;0.7224884033203125;
2022-10-23 17:03:18;1666533802.27416;faceUp;0.102325439453125;1.544830322265625;1.6064300537109375;
2022-10-23 17:03:18;1666533802.324178;faceUp;-0.9603424072265625;0.8043365478515625;0.2430267333984375;
2022-10-23 17:03:18;1666533802.374529;faceUp;-0.0749969482421875;1.1841278076171875;0.13519287109375;
2022-10-23 17:03:18;1666533802.4244208;faceUp;-0.60479736328125;0.79962158203125;-0.62701416015625;
2022-10-23 17:03:18;1666533802.4746552;faceUp;-0.6560821533203125;0.6802978515625;-0.096954345703125;
2022-10-23 17:03:18;1666533802.52462;faceUp;-0.2268524169921875;1.817657470703125;-0.1111907958984375;
2022-10-23 17:03:18;1666533802.574914;faceUp;0.2706298828125;1.556304931640625;0.52496337890625;
2022-10-23 17:03:18;1666533802.6248732;faceUp;0.0958404541015625;1.0485992431640625;0.1124725341796875;
2022-10-23 17:03:18;1666533802.675128;faceUp;0.146697998046875;0.271820068359375;-0.027984619140625;
2022-10-23 17:03:18;1666533802.725097;faceUp;-0.055908203125;0.3470611572265625;0.047210693359375;
2022-10-23 17:03:18;1666533802.7756839;faceUp;-0.1147308349609375;1.0313262939453125;0.0624237060546875;
2022-10-23 17:03:18;1666533802.82541;faceUp;-0.26666259765625;1.278167724609375;0.215789794921875;
2022-10-23 17:03:18;1666533802.87579;faceUp;0.7275543212890625;2.0063934326171875;0.2478790283203125;
2022-10-23 17:03:18;1666533802.92592;faceUp;0.0603179931640625;2.4060211181640625;-0.2324371337890625;
2022-10-23 17:03:18;1666533802.97668;faceUp;-0.0240325927734375;1.3361053466796875;-0.011077880859375;
2022-10-23 17:03:18;1666533803.02596;faceUp;0.088104248046875;0.9521484375;-0.9879608154296875;
2022-10-23 17:03:18;1666533803.0761518;faceUp;-0.0383453369140625;0.62030029296875;-0.4336090087890625;
2022-10-23 17:03:18;1666533803.126122;faceUp;0.0550537109375;0.261199951171875;1.0370635986328125;
2022-10-23 17:03:18;1666533803.1763458;faceUp;-0.3775787353515625;0.4334869384765625;-0.217926025390625;
2022-10-23 17:03:18;1666533803.2263021;faceUp;-0.1505279541015625;0.2388763427734375;-0.1572113037109375;
2022-10-23 17:03:18;1666533803.276828;faceUp;0.63092041015625;2.7507476806640625;2.6400146484375;
2022-10-23 17:03:18;1666533803.3266249;faceUp;0.33203125;0.8647308349609375;0.527252197265625;
2022-10-23 17:03:18;1666533803.3768;faceUp;0.6344757080078125;1.4007110595703125;-0.542236328125;
2022-10-23 17:03:18;1666533803.426886;faceUp;-0.0026092529296875;1.2071380615234375;-0.2734527587890625;
2022-10-23 17:03:18;1666533803.477724;faceUp;-0.041412353515625;0.5416259765625;-0.14483642578125;
2022-10-23 17:03:18;1666533803.527203;faceUp;0.211944580078125;0.9875640869140625;-0.285675048828125;
2022-10-23 17:03:18;1666533803.579372;faceUp;0.2967681884765625;0.90594482421875;-0.19677734375;
2022-10-23 17:03:18;1666533803.627887;faceUp;0.1967010498046875;0.735504150390625;0.0585479736328125;
2022-10-23 17:03:18;1666533803.678146;faceUp;0.3584747314453125;0.82037353515625;0.010467529296875;
2022-10-23 17:03:18;1666533803.727824;faceUp;0.3894500732421875;0.8440399169921875;-0.066497802734375;
2022-10-23 17:03:18;1666533803.7780051;faceUp;0.5266265869140625;0.852813720703125;0.0826568603515625;
2022-10-23 17:03:18;1666533803.828;faceUp;0.777069091796875;0.9040985107421875;0.1970367431640625;
2022-10-23 17:03:18;1666533803.878133;faceUp;1.0753021240234375;0.880615234375;-0.0184326171875;
2022-10-23 17:03:18;1666533803.929881;faceUp;1.3332366943359375;1.08697509765625;-0.1851348876953125;
2022-10-23 17:03:18;1666533803.978467;faceUp;0.9373931884765625;1.3744354248046875;0.4423370361328125;
2022-10-23 17:03:18;1666533804.0284271;faceUp;0.5642852783203125;1.359771728515625;-0.318145751953125;
2022-10-23 17:03:18;1666533804.078892;faceUp;0.4878082275390625;1.359130859375;-0.9091796875;
2022-10-23 17:03:18;1666533804.128669;faceUp;0.4267730712890625;0.3922271728515625;0.7201080322265625;
2022-10-23 17:03:18;1666533804.178936;faceUp;0.48211669921875;0.3889923095703125;-0.234588623046875;
2022-10-23 17:03:18;1666533804.228925;faceUp;0.2117919921875;0.5381317138671875;-0.260284423828125;
2022-10-23 17:03:18;1666533804.279254;faceUp;-0.18133544921875;0.3741912841796875;-0.0679779052734375;
2022-10-23 17:03:18;1666533804.3292599;faceUp;0.0917510986328125;0.56256103515625;0.653350830078125;
2022-10-23 17:03:18;1666533804.3793402;faceUp;1.41851806640625;1.7621307373046875;0.346160888671875;
2022-10-23 17:03:18;1666533804.4296288;faceUp;0.2498626708984375;0.66552734375;0.1461334228515625;
2022-10-23 17:03:18;1666533804.47968;faceUp;0.936370849609375;1.045318603515625;0.7823486328125;
2022-10-23 17:03:18;1666533804.5297189;faceUp;0.2199554443359375;0.8741607666015625;-0.284637451171875;
2022-10-23 17:03:18;1666533804.579945;faceUp;0.1470489501953125;0.637481689453125;-0.245391845703125;
2022-10-23 17:03:18;1666533804.629955;faceUp;0.5410003662109375;1.05230712890625;-0.3306732177734375;
2022-10-23 17:03:18;1666533804.680212;faceUp;0.4965667724609375;0.7515411376953125;-0.111724853515625;
2022-10-23 17:03:18;1666533804.7302032;faceUp;0.5678253173828125;0.672393798828125;-0.07025146484375;
2022-10-23 17:03:18;1666533804.780519;faceUp;0.60980224609375;0.6689453125;-0.0899505615234375;
2022-10-23 17:03:18;1666533804.8305268;faceUp;0.84149169921875;0.694091796875;0.1976165771484375;
2022-10-23 17:03:18;1666533804.880964;faceUp;0.6088409423828125;0.770782470703125;0.4612884521484375;
2022-10-23 17:03:18;1666533804.930762;faceUp;0.7757720947265625;0.7649078369140625;-0.2202911376953125;
2022-10-23 17:03:18;1666533804.981009;faceUp;1.082977294921875;0.771636962890625;-0.25067138671875;
2022-10-23 17:03:18;1666533805.030997;faceUp;1.28912353515625;1.0780487060546875;-0.0806121826171875;
2022-10-23 17:03:18;1666533805.08126;faceUp;0.7994537353515625;1.352386474609375;0.4365997314453125;
2022-10-23 17:03:18;1666533805.131228;faceUp;0.7129058837890625;1.277923583984375;-0.262969970703125;
2022-10-23 17:03:18;1666533805.181462;faceUp;0.5367279052734375;1.4868316650390625;-0.569366455078125;
2022-10-23 17:03:18;1666533805.2314348;faceUp;-0.5072174072265625;1.0807037353515625;0.953460693359375;
2022-10-23 17:03:18;1666533805.2817001;faceUp;1.0760345458984375;-0.020965576171875;-0.426300048828125;
2022-10-23 17:03:18;1666533805.331661;faceUp;0.692626953125;0.34423828125;-0.3156585693359375;
2022-10-23 17:03:18;1666533805.3820329;faceUp;-0.1169586181640625;0.4437408447265625;-0.3722076416015625;
2022-10-23 17:03:18;1666533805.432009;faceUp;-0.097320556640625;0.369354248046875;0.0943145751953125;
2022-10-23 17:03:18;1666533805.482316;faceUp;1.7333526611328125;1.7321624755859375;0.1568603515625;
2022-10-23 17:03:18;1666533805.532425;faceUp;0.4690399169921875;0.602783203125;0.19464111328125;
2022-10-23 17:03:18;1666533805.582541;faceUp;0.6739349365234375;0.853851318359375;-0.0128631591796875;
2022-10-23 17:03:18;1666533805.6325212;faceUp;0.4873504638671875;1.05865478515625;-0.0435638427734375;
2022-10-23 17:03:18;1666533805.682703;faceUp;0.260528564453125;0.6839141845703125;-0.13165283203125;
2022-10-23 17:03:18;1666533805.732775;faceUp;0.7570953369140625;0.8265533447265625;-0.325225830078125;
2022-10-23 17:03:18;1666533805.782938;faceUp;0.5420684814453125;0.67315673828125;-0.1615142822265625;
2022-10-23 17:03:18;1666533805.83301;faceUp;0.5020599365234375;0.5791168212890625;-0.0418243408203125;
2022-10-23 17:03:18;1666533805.883389;faceUp;0.5017852783203125;0.699127197265625;0.01873779296875;
2022-10-23 17:03:18;1666533805.9332762;faceUp;0.7975311279296875;0.7846527099609375;0.64752197265625;
2022-10-23 17:03:18;1666533805.98347;faceUp;0.80303955078125;0.656494140625;-0.0603179931640625;
2022-10-23 17:03:18;1666533806.0335321;faceUp;0.99481201171875;0.753021240234375;-0.2823028564453125;
2022-10-23 17:03:18;1666533806.0837312;faceUp;1.531829833984375;1.0169677734375;-0.2021636962890625;
2022-10-23 17:03:18;1666533806.133813;faceUp;1.0912628173828125;1.2194061279296875;0.699371337890625;
2022-10-23 17:03:18;1666533806.1839662;faceUp;0.6605682373046875;1.1123504638671875;-0.4929351806640625;
2022-10-23 17:03:18;1666533806.233979;faceUp;0.7238922119140625;1.57183837890625;-0.58843994140625;
2022-10-23 17:03:18;1666533806.284208;faceUp;0.470733642578125;0.6226959228515625;0.479949951171875;
2022-10-23 17:03:18;1666533806.334374;faceUp;0.3478240966796875;0.290374755859375;-0.365753173828125;
2022-10-23 17:03:18;1666533806.384499;faceUp;0.2075042724609375;0.3257598876953125;-0.4129180908203125;
2022-10-23 17:03:18;1666533806.4347591;faceUp;-0.24334716796875;0.2564544677734375;-0.205902099609375;
2022-10-23 17:03:18;1666533806.484776;faceUp;0.3684234619140625;0.5429840087890625;2.10614013671875;
2022-10-23 17:03:18;1666533806.534842;faceUp;1.6533660888671875;1.4779052734375;0.2093353271484375;
2022-10-23 17:03:18;1666533806.585011;faceUp;0.40496826171875;1.1927337646484375;-0.137725830078125;
2022-10-23 17:03:18;1666533806.635069;faceUp;0.4784088134765625;1.0550079345703125;-0.448516845703125;
2022-10-23 17:03:18;1666533806.685252;faceUp;0.11566162109375;0.4753570556640625;-0.1998291015625;
2022-10-23 17:03:18;1666533806.735327;faceUp;0.4367218017578125;0.905426025390625;-0.34124755859375;
2022-10-23 17:03:18;1666533806.785512;faceUp;0.709075927734375;0.91015625;-0.1851043701171875;
2022-10-23 17:03:18;1666533806.835592;faceUp;0.52801513671875;0.592376708984375;-0.0939483642578125;
2022-10-23 17:03:18;1666533806.886479;faceUp;0.52349853515625;0.5549774169921875;0.0353240966796875;
2022-10-23 17:03:18;1666533806.9358401;faceUp;0.704315185546875;0.7621612548828125;0.0191497802734375;
2022-10-23 17:03:18;1666533806.986031;faceUp;0.720001220703125;0.7822418212890625;0.02947998046875;
2022-10-23 17:03:18;1666533807.0361;faceUp;0.632476806640625;0.6480865478515625;-0.0547027587890625;
2022-10-23 17:03:18;1666533807.086282;faceUp;1.078277587890625;0.662109375;-0.2085418701171875;
2022-10-23 17:03:18;1666533807.136513;faceUp;1.5515899658203125;0.90789794921875;0.078704833984375;
2022-10-23 17:03:18;1666533807.18653;faceUp;0.9712982177734375;1.1204986572265625;0.3193359375;
2022-10-23 17:03:18;1666533807.2366362;faceUp;0.82379150390625;1.2552642822265625;-0.3043670654296875;
2022-10-23 17:03:18;1666533807.286796;faceUp;0.8123321533203125;1.7134552001953125;-0.2999267578125;
2022-10-23 17:03:18;1666533807.336874;faceUp;0.17742919921875;0.7601318359375;-0.099334716796875;
2022-10-23 17:03:18;1666533807.387028;faceUp;0.24847412109375;0.3897857666015625;-0.184844970703125;
2022-10-23 17:03:18;1666533807.437807;faceUp;0.5925140380859375;0.37744140625;-0.147857666015625;
2022-10-23 17:03:18;1666533807.4878001;faceUp;-0.026214599609375;0.395782470703125;-0.2824554443359375;
2022-10-23 17:03:18;1666533807.537921;faceUp;-0.085723876953125;0.1826019287109375;-0.07684326171875;
2022-10-23 17:03:18;1666533807.5877051;faceUp;1.636474609375;1.6885986328125;1.4889678955078125;
2022-10-23 17:03:18;1666533807.637836;faceUp;0.691925048828125;0.955780029296875;0.4415130615234375;
2022-10-23 17:03:18;1666533807.6879;faceUp;1.188720703125;1.219085693359375;0.963958740234375;
2022-10-23 17:03:18;1666533807.737976;faceUp;0.259552001953125;0.737274169921875;-0.31695556640625;
2022-10-23 17:03:18;1666533807.788118;faceUp;0.2844085693359375;0.7054595947265625;-0.20751953125;
2022-10-23 17:03:18;1666533807.838111;faceUp;0.570220947265625;0.877227783203125;-0.332489013671875;
2022-10-23 17:03:18;1666533807.888243;faceUp;0.7627410888671875;0.850250244140625;-0.1553802490234375;
2022-10-23 17:03:18;1666533807.9385772;faceUp;0.6337738037109375;0.5928955078125;0.0219573974609375;
2022-10-23 17:03:18;1666533807.988596;faceUp;0.61761474609375;0.567047119140625;0.261444091796875;
2022-10-23 17:03:18;1666533808.0386782;faceUp;0.75018310546875;0.7071075439453125;-0.071502685546875;
2022-10-23 17:03:18;1666533808.0888681;faceUp;0.6083984375;0.6432037353515625;-0.0817108154296875;
2022-10-23 17:03:18;1666533808.138904;faceUp;0.6267242431640625;0.6457977294921875;-0.0752410888671875;
2022-10-23 17:03:18;1666533808.189085;faceUp;0.9991607666015625;0.773162841796875;-0.111358642578125;
2022-10-23 17:03:18;1666533808.2391891;faceUp;1.288421630859375;0.96600341796875;0.465484619140625;
2022-10-23 17:03:18;1666533808.289387;faceUp;0.95184326171875;0.980987548828125;0.2835693359375;
2022-10-23 17:03:18;1666533808.3394089;faceUp;0.7919158935546875;1.032012939453125;-0.32916259765625;
2022-10-23 17:03:18;1666533808.389608;faceUp;0.8841705322265625;1.3609466552734375;-0.378875732421875;
2022-10-23 17:03:18;1666533808.4396791;faceUp;0.5491943359375;0.9772186279296875;-0.366912841796875;
2022-10-23 17:03:18;1666533808.4900532;faceUp;0.38836669921875;0.3285369873046875;-0.44659423828125;
2022-10-23 17:03:18;1666533808.539937;faceUp;0.5108184814453125;0.491180419921875;-0.1467437744140625;
2022-10-23 17:03:18;1666533808.590114;faceUp;-0.035919189453125;0.52044677734375;-0.3091583251953125;
2022-10-23 17:03:18;1666533808.6402168;faceUp;-0.257598876953125;0.2757720947265625;-0.1521148681640625;
2022-10-23 17:03:18;1666533808.6904058;faceUp;1.6741790771484375;1.477020263671875;2.881866455078125;
2022-10-23 17:03:18;1666533808.7403831;faceUp;1.30157470703125;0.7621917724609375;0.3392791748046875;
2022-10-23 17:03:18;1666533808.790608;faceUp;0.572174072265625;0.5631866455078125;-0.053863525390625;
2022-10-23 17:03:18;1666533808.840703;faceUp;1.6303253173828125;1.253570556640625;1.5934906005859375;
2022-10-23 17:03:18;1666533808.890857;faceUp;0.0743255615234375;0.7558441162109375;-0.3126678466796875;
2022-10-23 17:03:18;1666533808.940947;faceUp;0.236480712890625;0.7002105712890625;-0.0410308837890625;
2022-10-23 17:03:18;1666533808.991129;faceUp;0.5966949462890625;0.9685516357421875;-0.2855072021484375;
2022-10-23 17:03:18;1666533809.041206;faceUp;0.559417724609375;0.6812286376953125;-0.10357666015625;
2022-10-23 17:03:18;1666533809.091377;faceUp;0.6526641845703125;0.6942901611328125;-0.163177490234375;
2022-10-23 17:03:18;1666533809.14147;faceUp;0.5439300537109375;0.577056884765625;0.0352630615234375;
2022-10-23 17:03:18;1666533809.191648;faceUp;0.7425689697265625;0.6695709228515625;0.03875732421875;
2022-10-23 17:03:18;1666533809.241725;faceUp;0.6794586181640625;0.7444000244140625;0.0671234130859375;
2022-10-23 17:03:18;1666533809.291897;faceUp;0.698089599609375;0.757659912109375;-0.0238800048828125;
2022-10-23 17:03:18;1666533809.34197;faceUp;1.10345458984375;0.7349853515625;-0.114288330078125;
2022-10-23 17:03:18;1666533809.392163;faceUp;1.5989990234375;0.9358367919921875;-0.084930419921875;
2022-10-23 17:03:18;1666533809.4424062;faceUp;0.9618072509765625;1.1149139404296875;0.4467315673828125;
2022-10-23 17:03:18;1666533809.492432;faceUp;0.75787353515625;1.1161956787109375;-0.32342529296875;
2022-10-23 17:03:18;1666533809.54249;faceUp;0.8211822509765625;1.613372802734375;-0.383453369140625;
2022-10-23 17:03:18;1666533809.592691;faceUp;0.514068603515625;0.938720703125;0.440460205078125;
2022-10-23 17:03:18;1666533809.64274;faceUp;0.3645477294921875;0.4019622802734375;-0.3049774169921875;
2022-10-23 17:03:18;1666533809.6929278;faceUp;0.495208740234375;0.40582275390625;-0.1336212158203125;
2022-10-23 17:03:18;1666533809.7429771;faceUp;-0.0391845703125;0.423492431640625;-0.2221221923828125;
2022-10-23 17:03:18;1666533809.793189;faceUp;-0.1091766357421875;0.2238616943359375;0.0806427001953125;
2022-10-23 17:03:18;1666533809.843237;faceUp;1.7103729248046875;1.5891265869140625;0.465789794921875;
2022-10-23 17:03:18;1666533809.89342;faceUp;0.3438873291015625;0.5343170166015625;0.26641845703125;
2022-10-23 17:03:18;1666533809.943691;faceUp;0.59832763671875;0.974639892578125;-0.1190185546875;
2022-10-23 17:03:18;1666533809.9937038;faceUp;0.5892333984375;1.1934051513671875;-0.2864227294921875;
2022-10-23 17:03:18;1666533810.04374;faceUp;0.20672607421875;0.5230560302734375;-0.1738433837890625;
2022-10-23 17:03:18;1666533810.093985;faceUp;0.55682373046875;0.8556365966796875;-0.2958526611328125;
2022-10-23 17:03:18;1666533810.144024;faceUp;0.797332763671875;0.8338165283203125;-0.1402740478515625;
2022-10-23 17:03:18;1666533810.194211;faceUp;0.623138427734375;0.6180419921875;-0.0827178955078125;
2022-10-23 17:03:18;1666533810.244358;faceUp;0.5561065673828125;0.6137542724609375;0.16748046875;
2022-10-23 17:03:18;1666533810.294481;faceUp;0.703216552734375;0.75518798828125;-0.007965087890625;
2022-10-23 17:03:18;1666533810.344538;faceUp;0.666351318359375;0.678680419921875;-0.10968017578125;
2022-10-23 17:03:18;1666533810.394772;faceUp;0.730682373046875;0.719085693359375;-0.016021728515625;
2022-10-23 17:03:18;1666533810.444785;faceUp;0.972412109375;0.7660369873046875;-0.091339111328125;
2022-10-23 17:03:18;1666533810.495184;faceUp;1.512969970703125;0.9600677490234375;0.5854339599609375;
2022-10-23 17:03:18;1666533810.545078;faceUp;0.957855224609375;1.01788330078125;0.595184326171875;
2022-10-23 17:03:18;1666533810.595331;faceUp;0.71697998046875;1.0042877197265625;-0.3539581298828125;
2022-10-23 17:03:18;1666533810.645402;faceUp;0.837860107421875;1.38800048828125;-0.392242431640625;
2022-10-23 17:03:18;1666533810.695544;faceUp;0.4678802490234375;0.9416351318359375;-0.4091339111328125;
2022-10-23 17:03:18;1666533810.745689;faceUp;0.3897247314453125;0.5023040771484375;-0.0769805908203125;
2022-10-23 17:03:18;1666533810.795749;faceUp;0.480438232421875;0.50543212890625;-0.270263671875;
2022-10-23 17:03:18;1666533810.845824;faceUp;-0.0155181884765625;0.4803619384765625;-0.2153167724609375;
2022-10-23 17:03:18;1666533810.895976;faceUp;-0.2448272705078125;0.202392578125;-0.0740966796875;
2022-10-23 17:03:18;1666533810.946178;faceUp;1.8739166259765625;1.7624359130859375;1.6083984375;
2022-10-23 17:03:18;1666533810.996326;faceUp;0.8638763427734375;0.4286041259765625;0.1690521240234375;
2022-10-23 17:03:18;1666533811.046366;faceUp;0.702484130859375;0.9255218505859375;-0.2284393310546875;
2022-10-23 17:03:18;1666533811.0967;faceUp;0.6054534912109375;1.207672119140625;-0.1332855224609375;
2022-10-23 17:03:18;1666533811.146626;faceUp;0.1688232421875;0.6192779541015625;-0.17657470703125;
2022-10-23 17:03:18;1666533811.1967921;faceUp;0.4347076416015625;0.8835601806640625;-0.20343017578125;
2022-10-23 17:03:18;1666533811.246947;faceUp;0.643585205078125;0.8017120361328125;-0.1728515625;
2022-10-23 17:03:18;1666533811.2971811;faceUp;0.5612640380859375;0.60784912109375;-0.0813446044921875;
2022-10-23 17:03:18;1666533811.34766;faceUp;0.57891845703125;0.601593017578125;-0.0904693603515625;
2022-10-23 17:03:18;1666533811.397245;faceUp;0.7490692138671875;0.7406768798828125;0.1709136962890625;
2022-10-23 17:03:18;1666533811.4477758;faceUp;0.8003082275390625;0.71820068359375;0.046051025390625;
2022-10-23 17:03:18;1666533811.497552;faceUp;0.673858642578125;0.6216278076171875;-0.042938232421875;
2022-10-23 17:03:18;1666533811.5478458;faceUp;1.0923919677734375;0.835235595703125;-0.150543212890625;
2022-10-23 17:03:18;1666533811.598011;faceUp;1.53521728515625;0.906005859375;-0.1129150390625;
2022-10-23 17:03:18;1666533811.648206;faceUp;1.080169677734375;1.0871124267578125;0.629364013671875;
2022-10-23 17:03:18;1666533811.6980538;faceUp;0.7614288330078125;1.042236328125;-0.4459381103515625;
2022-10-23 17:03:18;1666533811.748114;faceUp;0.9087677001953125;1.4805145263671875;-0.4426422119140625;
2022-10-23 17:03:18;1666533811.79837;faceUp;0.4472503662109375;0.7025299072265625;0.32012939453125;
2022-10-23 17:03:18;1666533811.84838;faceUp;0.2979736328125;0.4611968994140625;-0.40380859375;
2022-10-23 17:03:18;1666533811.898546;faceUp;0.2694244384765625;0.51141357421875;-0.2472686767578125;
2022-10-23 17:03:18;1666533811.9486818;faceUp;-0.1982269287109375;0.40521240234375;-0.097412109375;
2022-10-23 17:03:18;1666533811.998835;faceUp;-0.4122467041015625;0.165283203125;0.1057281494140625;
2022-10-23 17:03:18;1666533812.048894;faceUp;1.729461669921875;1.7058258056640625;0.0356903076171875;
2022-10-23 17:03:18;1666533812.0990891;faceUp;0.3400726318359375;0.0729217529296875;0.1017913818359375;
2022-10-23 17:03:18;1666533812.149139;faceUp;0.8984375;1.485687255859375;-0.1811981201171875;
2022-10-23 17:03:18;1666533812.1993499;faceUp;0.182373046875;0.9467620849609375;-0.1683349609375;
2022-10-23 17:03:18;1666533812.24936;faceUp;0.2237548828125;0.4671630859375;-0.345550537109375;
2022-10-23 17:03:18;1666533812.299491;faceUp;0.7396087646484375;0.969757080078125;-0.312896728515625;
2022-10-23 17:03:18;1666533812.349581;faceUp;0.663818359375;0.6957550048828125;-0.086151123046875;
2022-10-23 17:03:18;1666533812.3997412;faceUp;0.40240478515625;0.47381591796875;-0.025909423828125;
2022-10-23 17:03:18;1666533812.449829;faceUp;0.57958984375;0.7196044921875;0.01373291015625;
2022-10-23 17:03:18;1666533812.4999142;faceUp;0.506866455078125;0.7767181396484375;0.1630706787109375;
2022-10-23 17:03:18;1666533812.550229;faceUp;0.532379150390625;0.7882080078125;0.3480224609375;
2022-10-23 17:03:18;1666533812.6002378;faceUp;0.96295166015625;0.7798004150390625;-0.16265869140625;
2022-10-23 17:03:18;1666533812.65034;faceUp;1.27130126953125;0.7502593994140625;-0.157440185546875;
2022-10-23 17:03:18;1666533812.700496;faceUp;1.5974578857421875;0.9792938232421875;1.04339599609375;
2022-10-23 17:03:18;1666533812.750535;faceUp;0.999786376953125;1.040924072265625;-0.1003875732421875;
2022-10-23 17:03:18;1666533812.800744;faceUp;0.949432373046875;1.401275634765625;-0.3675384521484375;
2022-10-23 17:03:18;1666533812.850858;faceUp;0.7757415771484375;1.5649261474609375;-0.3016204833984375;
2022-10-23 17:03:18;1666533812.9010239;faceUp;0.3692779541015625;0.5377349853515625;-0.036346435546875;
2022-10-23 17:03:18;1666533812.951144;faceUp;0.403350830078125;0.4031829833984375;-0.214691162109375;
2022-10-23 17:03:18;1666533813.001264;faceUp;0.1045989990234375;0.391876220703125;-0.31951904296875;
2022-10-23 17:03:18;1666533813.0513968;faceUp;-0.2754669189453125;0.1476898193359375;-0.1151275634765625;
2022-10-23 17:03:18;1666533813.1015592;faceUp;0.9221038818359375;0.4973602294921875;2.8059844970703125;
2022-10-23 17:03:18;1666533813.151554;faceUp;1.5526123046875;1.223480224609375;0.387451171875;
2022-10-23 17:03:18;1666533813.2017798;faceUp;0.37091064453125;0.7590179443359375;0.0855865478515625;
2022-10-23 17:03:18;1666533813.2518458;faceUp;1.0264434814453125;1.3594207763671875;0.88934326171875;
2022-10-23 17:03:18;1666533813.302181;faceUp;0.181915283203125;0.7859649658203125;-0.286407470703125;
2022-10-23 17:03:18;1666533813.352237;faceUp;0.33782958984375;0.736541748046875;-0.2243804931640625;
2022-10-23 17:03:18;1666533813.402513;faceUp;0.6531982421875;0.8868255615234375;-0.2440948486328125;
2022-10-23 17:03:18;1666533813.452537;faceUp;0.735198974609375;0.7421722412109375;-0.10943603515625;
2022-10-23 17:03:18;1666533813.502624;faceUp;0.666107177734375;0.5072479248046875;-0.0366058349609375;
2022-10-23 17:03:18;1666533813.552778;faceUp;0.7367401123046875;0.6425628662109375;0.89013671875;
2022-10-23 17:03:18;1666533813.60294;faceUp;0.732269287109375;0.6785888671875;-0.0694122314453125;
2022-10-23 17:03:18;1666533813.6530209;faceUp;0.6529541015625;0.7077484130859375;-0.0973358154296875;
2022-10-23 17:03:18;1666533813.703179;faceUp;0.7652130126953125;0.7783660888671875;-0.1130218505859375;
2022-10-23 17:03:18;1666533813.7532349;faceUp;1.178680419921875;0.895782470703125;0.0218658447265625;
2022-10-23 17:03:18;1666533813.803405;faceUp;1.5325469970703125;0.9600677490234375;0.730194091796875;
2022-10-23 17:03:18;1666533813.853487;faceUp;0.78875732421875;1.056671142578125;0.39013671875;
2022-10-23 17:03:18;1666533813.903652;faceUp;0.763641357421875;1.0772552490234375;-0.4464874267578125;
2022-10-23 17:03:18;1666533813.953814;faceUp;0.856536865234375;1.4582977294921875;-0.283203125;
2022-10-23 17:03:18;1666533814.003963;faceUp;0.4923248291015625;0.6342315673828125;0.264190673828125;
2022-10-23 17:03:18;1666533814.0540051;faceUp;0.39630126953125;0.54156494140625;-0.2627410888671875;
2022-10-23 17:03:18;1666533814.104465;faceUp;0.4125213623046875;0.6406707763671875;-0.2007293701171875;
2022-10-23 17:03:18;1666533814.154317;faceUp;-0.0697479248046875;0.468658447265625;-0.1677093505859375;
2022-10-23 17:03:18;1666533814.204442;faceUp;-0.2021484375;0.3555450439453125;0.073974609375;
2022-10-23 17:03:18;1666533814.254523;faceUp;1.7264862060546875;1.0808258056640625;0.9384918212890625;
2022-10-23 17:03:18;1666533814.3047872;faceUp;0.843231201171875;0.578460693359375;0.3610687255859375;
2022-10-23 17:03:18;1666533814.3548012;faceUp;0.3631744384765625;0.515289306640625;-0.0728607177734375;
2022-10-23 17:03:18;1666533814.40499;faceUp;1.6403350830078125;1.8896484375;2.0770111083984375;
2022-10-23 17:03:18;1666533814.4550018;faceUp;-0.02679443359375;0.5612945556640625;-0.2302703857421875;
2022-10-23 17:03:18;1666533814.505203;faceUp;0.26416015625;0.6689605712890625;-0.198822021484375;
2022-10-23 17:03:18;1666533814.5552301;faceUp;0.7450714111328125;1.0457763671875;-0.3187103271484375;
2022-10-23 17:03:18;1666533814.605458;faceUp;0.674468994140625;0.660614013671875;0.02862548828125;
2022-10-23 17:03:18;1666533814.65572;faceUp;0.702178955078125;0.584808349609375;0.003875732421875;
2022-10-23 17:03:18;1666533814.705728;faceUp;0.8209381103515625;0.6723175048828125;-0.051239013671875;
2022-10-23 17:03:18;1666533814.7557878;faceUp;0.684906005859375;0.646484375;-0.12481689453125;
2022-10-23 17:03:18;1666533814.8059778;faceUp;0.5726776123046875;0.6240234375;-0.0628814697265625;
2022-10-23 17:03:18;1666533814.85608;faceUp;0.7204132080078125;0.7719573974609375;-0.0422210693359375;
2022-10-23 17:03:18;1666533814.906214;faceUp;0.90789794921875;0.8438262939453125;-0.065765380859375;
2022-10-23 17:03:18;1666533814.956351;faceUp;1.302154541015625;0.94671630859375;-0.061920166015625;
2022-10-23 17:03:18;1666533815.006518;faceUp;0.9463653564453125;0.95355224609375;0.6530609130859375;
2022-10-23 17:03:18;1666533815.056572;faceUp;0.7967987060546875;0.980743408203125;-0.3604583740234375;
2022-10-23 17:03:18;1666533815.106797;faceUp;0.765533447265625;1.3483123779296875;-0.4012451171875;
2022-10-23 17:03:18;1666533815.156845;faceUp;0.58624267578125;1.1355743408203125;-0.495147705078125;
2022-10-23 17:03:18;1666533815.2078;faceUp;0.39410400390625;0.516448974609375;0.11627197265625;
2022-10-23 17:03:18;1666533815.257802;faceUp;0.4734344482421875;0.5499114990234375;-0.115509033203125;
2022-10-23 17:03:18;1666533815.307785;faceUp;0.110992431640625;0.496856689453125;-0.224456787109375;
2022-10-23 17:03:18;1666533815.3577762;faceUp;-0.25115966796875;0.2721099853515625;-0.1219329833984375;
2022-10-23 17:03:18;1666533815.407812;faceUp;0.753814697265625;0.66082763671875;1.9247589111328125;
2022-10-23 17:03:18;1666533815.457844;faceUp;1.8278961181640625;0.7198638916015625;0.234283447265625;
2022-10-23 17:03:18;1666533815.507803;faceUp;0.6180572509765625;0.41363525390625;0.3582305908203125;
2022-10-23 17:03:18;1666533815.55792;faceUp;0.1536865234375;1.0762481689453125;-0.48297119140625;
2022-10-23 17:03:18;1666533815.608278;faceUp;0.76824951171875;1.444244384765625;-0.117462158203125;
2022-10-23 17:03:18;1666533815.6582808;faceUp;0.1305389404296875;0.39019775390625;-0.148406982421875;
2022-10-23 17:03:18;1666533815.708288;faceUp;0.42694091796875;0.736846923828125;-0.226593017578125;
2022-10-23 17:03:18;1666533815.758338;faceUp;0.8972015380859375;1.0052032470703125;-0.251129150390625;
2022-10-23 17:03:18;1666533815.808519;faceUp;0.612335205078125;0.6101837158203125;0.0122833251953125;
2022-10-23 17:03:18;1666533815.858611;faceUp;0.668060302734375;0.562896728515625;0.2503509521484375;
2022-10-23 17:03:18;1666533815.908763;faceUp;0.6771240234375;0.661407470703125;-0.06317138671875;
2022-10-23 17:03:18;1666533815.958877;faceUp;0.616729736328125;0.6442413330078125;-0.134063720703125;
2022-10-23 17:03:18;1666533816.009054;faceUp;0.6090545654296875;0.714447021484375;0.0064544677734375;
2022-10-23 17:03:18;1666533816.0591269;faceUp;0.714752197265625;0.8732147216796875;-0.05328369140625;
2022-10-23 17:03:18;1666533816.1093159;faceUp;0.7403717041015625;0.81787109375;-0.0848541259765625;
2022-10-23 17:03:18;1666533816.1594172;faceUp;1.7398529052734375;1.074462890625;0.571502685546875;
2022-10-23 17:03:18;1666533816.209587;faceUp;0.963775634765625;0.8411865234375;0.4715423583984375;
2022-10-23 17:03:18;1666533816.259622;faceUp;0.8831634521484375;1.1296844482421875;-0.1719970703125;
2022-10-23 17:03:18;1666533816.309789;faceUp;0.7259063720703125;1.4013824462890625;-0.39654541015625;
2022-10-23 17:03:18;1666533816.359868;faceUp;0.4818572998046875;1.0011138916015625;-0.805511474609375;
2022-10-23 17:03:18;1666533816.4100819;faceUp;0.57293701171875;0.491546630859375;0.2725982666015625;
2022-10-23 17:03:18;1666533816.4601789;faceUp;0.657470703125;0.545166015625;-0.2841644287109375;
2022-10-23 17:03:18;1666533816.510271;faceUp;0.071929931640625;0.5533905029296875;-0.2233123779296875;
2022-10-23 17:03:18;1666533816.560392;faceUp;-0.307098388671875;0.2783355712890625;-0.0971832275390625;
2022-10-23 17:03:18;1666533816.6105561;faceUp;1.2579498291015625;0.8663330078125;1.5581512451171875;
2022-10-23 17:03:18;1666533816.660634;faceUp;1.2069244384765625;0.423828125;0.2986602783203125;
2022-10-23 17:03:18;1666533816.711001;faceUp;1.0937957763671875;-0.0125274658203125;-0.1004180908203125;
2022-10-23 17:03:18;1666533816.7609038;faceUp;1.094024658203125;1.36181640625;0.91937255859375;
2022-10-23 17:03:18;1666533816.811164;faceUp;-0.098236083984375;0.7765655517578125;-0.5173797607421875;
2022-10-23 17:03:18;1666533816.861207;faceUp;-0.0230255126953125;0.383148193359375;0.0933990478515625;
2022-10-23 17:03:18;1666533816.911326;faceUp;0.5251312255859375;1.1429901123046875;-0.1781463623046875;
2022-10-23 17:03:18;1666533816.961471;faceUp;0.6989593505859375;0.946380615234375;-0.1891937255859375;
2022-10-23 17:03:18;1666533817.011592;faceUp;0.756439208984375;0.7523651123046875;-0.182281494140625;
2022-10-23 17:03:18;1666533817.061701;faceUp;0.6836395263671875;0.480804443359375;-0.0252685546875;
2022-10-23 17:03:18;1666533817.111846;faceUp;0.7935943603515625;0.6255035400390625;-0.076507568359375;
2022-10-23 17:03:18;1666533817.161948;faceUp;0.60345458984375;0.6432342529296875;-0.0130615234375;
2022-10-23 17:03:18;1666533817.2122989;faceUp;0.62261962890625;0.6735687255859375;0.023284912109375;
2022-10-23 17:03:18;1666533817.2621841;faceUp;0.8014984130859375;0.748138427734375;-0.0761260986328125;
2022-10-23 17:03:18;1666533817.312379;faceUp;1.027313232421875;0.9636993408203125;-0.0120697021484375;
2022-10-23 17:03:18;1666533817.3624601;faceUp;1.3159332275390625;1.0506744384765625;0.08624267578125;
2022-10-23 17:03:18;1666533817.4126248;faceUp;1.0045928955078125;0.93743896484375;0.662384033203125;
2022-10-23 17:03:18;1666533817.462772;faceUp;0.8482666015625;1.0639495849609375;-0.334075927734375;
2022-10-23 17:03:18;1666533817.5128632;faceUp;0.7577972412109375;1.374786376953125;-0.377105712890625;
2022-10-23 17:03:18;1666533817.562938;faceUp;0.448211669921875;0.9912872314453125;-0.5141143798828125;
2022-10-23 17:03:18;1666533817.613122;faceUp;0.480682373046875;0.5257720947265625;0.131103515625;
2022-10-23 17:03:18;1666533817.663189;faceUp;0.638824462890625;0.6084747314453125;-0.19171142578125;
2022-10-23 17:03:18;1666533817.7135649;faceUp;0.0970611572265625;0.5612030029296875;-0.23974609375;
2022-10-23 17:03:18;1666533817.7634602;faceUp;-0.2703857421875;0.0953216552734375;-0.0813751220703125;
2022-10-23 17:03:18;1666533817.81364;faceUp;1.396453857421875;0.5165557861328125;1.687286376953125;
2022-10-23 17:03:18;1666533817.8637;faceUp;1.2592926025390625;0.5970306396484375;0.4304962158203125;
2022-10-23 17:03:18;1666533817.9138699;faceUp;0.448089599609375;0.5233306884765625;0.039337158203125;
2022-10-23 17:03:18;1666533817.96397;faceUp;1.138641357421875;1.695648193359375;1.2530059814453125;
2022-10-23 17:03:18;1666533818.014133;faceUp;-0.0018463134765625;0.5983428955078125;-0.0886688232421875;
2022-10-23 17:03:18;1666533818.064213;faceUp;0.2364044189453125;0.76947021484375;-0.17572021484375;
2022-10-23 17:03:18;1666533818.1144009;faceUp;0.735382080078125;1.19134521484375;-0.2696685791015625;
2022-10-23 17:03:18;1666533818.164472;faceUp;0.9728546142578125;0.872650146484375;-0.0568695068359375;
2022-10-23 17:03:18;1666533818.214839;faceUp;0.8690643310546875;0.3972320556640625;0.469390869140625;
2022-10-23 17:03:18;1666533818.264728;faceUp;0.66094970703125;0.4396820068359375;-0.115936279296875;
2022-10-23 17:03:18;1666533818.3149219;faceUp;0.64666748046875;0.7173004150390625;-0.0926361083984375;
2022-10-23 17:03:18;1666533818.364973;faceUp;0.5642242431640625;0.722686767578125;-0.0738677978515625;
2022-10-23 17:03:18;1666533818.415231;faceUp;0.4882659912109375;0.661468505859375;0.088897705078125;
2022-10-23 17:03:18;1666533818.465234;faceUp;0.6940765380859375;0.7462158203125;-0.0507049560546875;
2022-10-23 17:03:18;1666533818.515408;faceUp;1.27490234375;1.11865234375;-0.10430908203125;
2022-10-23 17:03:18;1666533818.5654821;faceUp;1.31231689453125;0.811431884765625;0.7358245849609375;
2022-10-23 17:03:18;1666533818.615664;faceUp;0.9096832275390625;1.032196044921875;0.354827880859375;
2022-10-23 17:03:18;1666533818.6657848;faceUp;0.7762451171875;0.9473876953125;-0.0510711669921875;
2022-10-23 17:03:18;1666533818.715924;faceUp;0.71905517578125;1.1400299072265625;-0.3136444091796875;
2022-10-23 17:03:18;1666533818.766024;faceUp;0.6558380126953125;1.1570892333984375;-0.693511962890625;
2022-10-23 17:03:18;1666533818.816184;faceUp;0.821441650390625;0.7920684814453125;0.60955810546875;
2022-10-23 17:03:18;1666533818.866267;faceUp;0.598480224609375;0.5679931640625;-0.061859130859375;
2022-10-23 17:03:18;1666533818.916449;faceUp;0.2126312255859375;0.5345611572265625;-0.1249847412109375;
2022-10-23 17:03:18;1666533818.966518;faceUp;-0.1692657470703125;0.279022216796875;-0.0697021484375;
2022-10-23 17:03:18;1666533819.016717;faceUp;0.939483642578125;0.181365966796875;1.64178466796875;
2022-10-23 17:03:18;1666533819.06679;faceUp;1.27984619140625;0.6761474609375;0.5226593017578125;
2022-10-23 17:03:18;1666533819.1178021;faceUp;0.0625457763671875;0.0817718505859375;-0.0929107666015625;
2022-10-23 17:03:18;1666533819.166964;faceUp;0.7576141357421875;1.3173828125;2.5696868896484375;
2022-10-23 17:03:18;1666533819.217731;faceUp;0.334503173828125;0.6774749755859375;-0.0256500244140625;
2022-10-23 17:03:18;1666533819.2677011;faceUp;0.199859619140625;0.6424713134765625;-0.057037353515625;
2022-10-23 17:03:18;1666533819.317539;faceUp;0.67510986328125;1.2401885986328125;-0.170166015625;
2022-10-23 17:03:18;1666533819.367728;faceUp;0.88568115234375;0.87847900390625;-0.0174102783203125;
2022-10-23 17:03:18;1666533819.417879;faceUp;0.8794403076171875;0.597442626953125;-0.1121063232421875;
2022-10-23 17:03:18;1666533819.467826;faceUp;0.706024169921875;0.478179931640625;-0.066497802734375;
2022-10-23 17:03:18;1666533819.518054;faceUp;0.5953369140625;0.6412506103515625;-0.0498504638671875;
2022-10-23 17:03:18;1666533819.569263;faceUp;0.5198516845703125;0.639801025390625;-0.0867767333984375;
2022-10-23 17:03:18;1666533819.618232;faceUp;0.51434326171875;0.6554718017578125;0.028778076171875;
2022-10-23 17:03:18;1666533819.668314;faceUp;0.686004638671875;0.8314666748046875;0.023223876953125;
2022-10-23 17:03:18;1666533819.7184901;faceUp;0.944549560546875;0.98297119140625;-0.0321807861328125;
2022-10-23 17:03:18;1666533819.7687778;faceUp;1.39630126953125;1.0247955322265625;-0.055816650390625;
2022-10-23 17:03:18;1666533819.818771;faceUp;0.6746826171875;0.9000396728515625;0.6830596923828125;
2022-10-23 17:03:18;1666533819.868825;faceUp;0.9790496826171875;1.148895263671875;-0.227783203125;
2022-10-23 17:03:18;1666533819.919002;faceUp;0.7307891845703125;1.38616943359375;-0.3897552490234375;
2022-10-23 17:03:18;1666533819.969118;faceUp;0.4045257568359375;0.8211669921875;-0.6229248046875;
2022-10-23 17:03:18;1666533820.019329;faceUp;0.636199951171875;0.48699951171875;0.3717041015625;
2022-10-23 17:03:18;1666533820.06931;faceUp;0.6586456298828125;0.483673095703125;-0.180908203125;
2022-10-23 17:03:18;1666533820.119515;faceUp;0.12066650390625;0.5324554443359375;-0.233123779296875;
2022-10-23 17:03:18;1666533820.1695728;faceUp;-0.1990814208984375;0.3584442138671875;-0.1127166748046875;
2022-10-23 17:03:18;1666533820.219763;faceUp;0.8089447021484375;0.620361328125;1.8478851318359375;
2022-10-23 17:03:18;1666533820.2698488;faceUp;1.7825164794921875;0.5028076171875;0.285919189453125;
2022-10-23 17:03:18;1666533820.320221;faceUp;0.4206085205078125;0.5541229248046875;0.3151702880859375;
2022-10-23 17:03:18;1666533820.370092;faceUp;1.325897216796875;1.304046630859375;1.0502471923828125;
2022-10-23 17:03:18;1666533820.4203;faceUp;-0.1414337158203125;0.82568359375;-0.24371337890625;
2022-10-23 17:03:18;1666533820.470356;faceUp;0.0767822265625;0.552947998046875;0.0189971923828125;
2022-10-23 17:03:18;1666533820.5205321;faceUp;0.4548492431640625;1.0454559326171875;-0.19775390625;
2022-10-23 17:03:18;1666533820.5706692;faceUp;0.7855072021484375;1.073028564453125;-0.2444915771484375;
2022-10-23 17:03:18;1666533820.620785;faceUp;0.922943115234375;0.7288970947265625;-0.188751220703125;
2022-10-23 17:03:18;1666533820.670852;faceUp;0.8334197998046875;0.5229644775390625;-0.092315673828125;
2022-10-23 17:03:18;1666533820.721043;faceUp;0.66815185546875;0.5723114013671875;-0.12261962890625;
2022-10-23 17:03:18;1666533820.771111;faceUp;0.5857391357421875;0.62567138671875;-0.10357666015625;
2022-10-23 17:03:18;1666533820.8214788;faceUp;0.53924560546875;0.6370086669921875;-0.0127105712890625;
2022-10-23 17:03:18;1666533820.871364;faceUp;0.6744537353515625;0.8026885986328125;0.016693115234375;
2022-10-23 17:03:18;1666533820.921552;faceUp;0.9022979736328125;0.9478912353515625;-0.0425872802734375;
2022-10-23 17:03:18;1666533820.971693;faceUp;1.4365234375;0.9758453369140625;0.6875457763671875;
2022-10-23 17:03:18;1666533821.021865;faceUp;1.087738037109375;0.8921966552734375;0.2604522705078125;
2022-10-23 17:03:18;1666533821.0718951;faceUp;0.869842529296875;1.0034942626953125;-0.1141204833984375;
2022-10-23 17:03:18;1666533821.122093;faceUp;0.8385162353515625;1.6025848388671875;-0.143157958984375;
2022-10-23 17:03:18;1666533821.172164;faceUp;0.5314788818359375;1.145416259765625;-0.727935791015625;
2022-10-23 17:03:18;1666533821.222292;faceUp;0.3701324462890625;0.550811767578125;0.1298065185546875;
2022-10-23 17:03:18;1666533821.272448;faceUp;0.5275726318359375;0.5207366943359375;0.002410888671875;
2022-10-23 17:03:18;1666533821.3228002;faceUp;0.2604522705078125;0.536590576171875;-0.230926513671875;
2022-10-23 17:03:18;1666533821.372639;faceUp;-0.1057891845703125;0.36785888671875;-0.1451416015625;
2022-10-23 17:03:18;1666533821.4228492;faceUp;0.0183563232421875;0.333038330078125;1.039459228515625;
2022-10-23 17:03:18;1666533821.4729881;faceUp;2.0809173583984375;0.72943115234375;0.33880615234375;
2022-10-23 17:03:18;1666533821.5231562;faceUp;0.576629638671875;0.402130126953125;0.3976593017578125;
2022-10-23 17:03:18;1666533821.5732641;faceUp;0.3612518310546875;1.15576171875;-0.3230743408203125;
2022-10-23 17:03:18;1666533821.623373;faceUp;0.631622314453125;1.17327880859375;-0.0376739501953125;
2022-10-23 17:03:18;1666533821.673418;faceUp;-0.0020904541015625;0.52154541015625;0.03509521484375;
2022-10-23 17:03:18;1666533821.723606;faceUp;0.3444366455078125;0.89044189453125;-0.1097564697265625;
2022-10-23 17:03:18;1666533821.773666;faceUp;0.7872314453125;1.076873779296875;-0.18463134765625;
2022-10-23 17:03:18;1666533821.8240352;faceUp;0.8614044189453125;0.773590087890625;-0.255615234375;
2022-10-23 17:03:18;1666533821.873946;faceUp;0.8981781005859375;0.4369659423828125;0.0702056884765625;
2022-10-23 17:03:18;1666533821.9241052;faceUp;0.6913604736328125;0.500213623046875;-0.09698486328125;
2022-10-23 17:03:18;1666533821.974293;faceUp;0.6010894775390625;0.6614837646484375;-0.1151885986328125;
2022-10-23 17:03:18;1666533822.024325;faceUp;0.6082763671875;0.69512939453125;-0.090240478515625;
2022-10-23 17:03:18;1666533822.074384;faceUp;0.63037109375;0.7039642333984375;0.07757568359375;
2022-10-23 17:03:18;1666533822.1246572;faceUp;0.776275634765625;0.848052978515625;-0.0391998291015625;
2022-10-23 17:03:18;1666533822.174753;faceUp;1.2549285888671875;1.1742401123046875;0.8659820556640625;
2022-10-23 17:03:18;1666533822.224817;faceUp;1.1977996826171875;0.8781585693359375;-0.112030029296875;
2022-10-23 17:03:18;1666533822.275127;faceUp;0.7728271484375;1.0740966796875;0.2081756591796875;
2022-10-23 17:03:18;1666533822.325128;faceUp;0.8391571044921875;1.2614593505859375;-0.290985107421875;
2022-10-23 17:03:18;1666533822.375171;faceUp;0.6766357421875;1.2047119140625;-0.467071533203125;
2022-10-23 17:03:18;1666533822.4254022;faceUp;0.46417236328125;0.47869873046875;0.1929473876953125;
2022-10-23 17:03:18;1666533822.475494;faceUp;0.5568389892578125;0.4840087890625;0.005828857421875;
2022-10-23 17:03:18;1666533822.525693;faceUp;0.4433441162109375;0.610076904296875;-0.151458740234375;
2022-10-23 17:03:18;1666533822.5757241;faceUp;-0.028350830078125;0.5052642822265625;-0.0526123046875;
2022-10-23 17:03:18;1666533822.6259031;faceUp;0.1591339111328125;0.3675689697265625;0.9586944580078125;
2022-10-23 17:03:18;1666533822.675956;faceUp;1.679473876953125;0.577423095703125;0.5459747314453125;
2022-10-23 17:03:18;1666533822.726156;faceUp;0.840087890625;0.5397491455078125;0.4340972900390625;
2022-10-23 17:03:18;1666533822.776396;faceUp;0.074462890625;0.120819091796875;-0.05810546875;
2022-10-23 17:03:18;1666533822.826635;faceUp;1.79595947265625;2.068511962890625;3.0259246826171875;
2022-10-23 17:03:18;1666533822.876508;faceUp;0.127777099609375;0.47711181640625;-0.1744537353515625;
2022-10-23 17:03:18;1666533822.926653;faceUp;0.332122802734375;0.7454833984375;-0.1042022705078125;
2022-10-23 17:03:18;1666533822.977495;faceUp;0.8956756591796875;1.2189178466796875;-0.2744903564453125;
2022-10-23 17:03:18;1666533823.027544;faceUp;0.816741943359375;0.58197021484375;0.0926055908203125;
2022-10-23 17:03:18;1666533823.077472;faceUp;0.7736053466796875;0.5592498779296875;0.2406463623046875;
2022-10-23 17:03:18;1666533823.127197;faceUp;0.6378326416015625;0.5363006591796875;-0.13470458984375;
2022-10-23 17:03:18;1666533823.1776118;faceUp;0.5969085693359375;0.6746368408203125;-0.1186676025390625;
2022-10-23 17:03:18;1666533823.227618;faceUp;0.56353759765625;0.7038421630859375;-0.063140869140625;
2022-10-23 17:03:18;1666533823.277715;faceUp;0.5879669189453125;0.6712493896484375;0.080841064453125;
2022-10-23 17:03:18;1666533823.327917;faceUp;0.66802978515625;0.75958251953125;-0.10113525390625;
2022-10-23 17:03:18;1666533823.37781;faceUp;1.115020751953125;1.1233367919921875;-0.0725250244140625;
2022-10-23 17:03:18;1666533823.4280028;faceUp;1.4051055908203125;0.8903045654296875;0.724853515625;
2022-10-23 17:03:18;1666533823.477999;faceUp;0.8576812744140625;0.8661346435546875;0.44818115234375;
2022-10-23 17:03:18;1666533823.5281758;faceUp;0.8519134521484375;1.2404022216796875;-0.12335205078125;
2022-10-23 17:03:18;1666533823.578291;faceUp;0.6723480224609375;1.525360107421875;-0.349395751953125;
2022-10-23 17:03:18;1666533823.6284509;faceUp;0.292999267578125;0.7708740234375;-0.5521087646484375;
2022-10-23 17:03:18;1666533823.678524;faceUp;0.4278411865234375;0.458251953125;0.228546142578125;
2022-10-23 17:03:18;1666533823.728681;faceUp;0.6501007080078125;0.5015869140625;-0.1313323974609375;
2022-10-23 17:03:18;1666533823.7787561;faceUp;0.0009765625;0.4654998779296875;-0.1311187744140625;
2022-10-23 17:03:18;1666533823.829135;faceUp;-0.164825439453125;0.2231597900390625;-0.0012054443359375;
2022-10-23 17:03:18;1666533823.879043;faceUp;1.792633056640625;0.78021240234375;1.163787841796875;
2022-10-23 17:03:18;1666533823.929213;faceUp;1.14361572265625;0.4054107666015625;0.366424560546875;
2022-10-23 17:03:18;1666533823.9793139;faceUp;0.530364990234375;1.0294952392578125;0.2820587158203125;
2022-10-23 17:03:18;1666533824.029563;faceUp;0.8655853271484375;0.8760833740234375;0.5953369140625;
2022-10-23 17:03:18;1666533824.079562;faceUp;-0.1888427734375;0.60479736328125;0.1453704833984375;
2022-10-23 17:03:18;1666533824.129746;faceUp;0.2787628173828125;0.8490447998046875;-0.164337158203125;
2022-10-23 17:03:18;1666533824.1798692;faceUp;0.551116943359375;1.124420166015625;-0.224700927734375;
2022-10-23 17:03:18;1666533824.22993;faceUp;0.624603271484375;0.7563629150390625;-0.1347808837890625;
2022-10-23 17:03:18;1666533824.280095;faceUp;0.6726226806640625;0.580169677734375;0.149871826171875;
2022-10-23 17:03:18;1666533824.330433;faceUp;0.74444580078125;0.5951690673828125;-0.06390380859375;
2022-10-23 17:03:18;1666533824.3803291;faceUp;0.654205322265625;0.6356201171875;-0.0244903564453125;
2022-10-23 17:03:18;1666533824.430495;faceUp;0.5946197509765625;0.6592864990234375;-0.02215576171875;
2022-10-23 17:03:18;1666533824.480638;faceUp;0.6151885986328125;0.633941650390625;0.0314788818359375;
2022-10-23 17:03:18;1666533824.530752;faceUp;0.97247314453125;0.6983489990234375;-0.1408233642578125;
2022-10-23 17:03:18;1666533824.5808349;faceUp;1.12127685546875;1.0326690673828125;0.24200439453125;
2022-10-23 17:03:18;1666533824.631022;faceUp;1.17169189453125;0.870269775390625;0.026153564453125;
2022-10-23 17:03:18;1666533824.681086;faceUp;0.8816680908203125;1.0205535888671875;0.280792236328125;
2022-10-23 17:03:18;1666533824.7312489;faceUp;0.887664794921875;1.1827850341796875;-0.27728271484375;
2022-10-23 17:03:18;1666533824.781505;faceUp;0.8054351806640625;1.4037628173828125;-0.3047943115234375;
2022-10-23 17:03:18;1666533824.8315458;faceUp;0.6521453857421875;0.567596435546875;0.4449920654296875;
2022-10-23 17:03:18;1666533824.881578;faceUp;0.425445556640625;0.49462890625;-0.194305419921875;
2022-10-23 17:03:18;1666533824.931779;faceUp;0.3692626953125;0.483612060546875;-0.2664642333984375;
2022-10-23 17:03:18;1666533824.9818602;faceUp;-0.115966796875;0.3945770263671875;-0.1742095947265625;
2022-10-23 17:03:18;1666533825.032079;faceUp;-0.2635040283203125;0.1631622314453125;0.2919769287109375;
2022-10-23 17:03:18;1666533825.082104;faceUp;1.92242431640625;1.1227874755859375;0.576416015625;
2022-10-23 17:03:18;1666533825.132303;faceUp;1.0050811767578125;0.684234619140625;0.494720458984375;
2022-10-23 17:03:18;1666533825.182374;faceUp;1.0181121826171875;0.6399078369140625;0.27166748046875;
2022-10-23 17:03:18;1666533825.232482;faceUp;-0.2112274169921875;0.5301055908203125;0.200408935546875;
2022-10-23 17:03:18;1666533825.282608;faceUp;0.1958770751953125;1.1572723388671875;-0.1663970947265625;
2022-10-23 17:03:18;1666533825.3329458;faceUp;0.5275115966796875;1.0089111328125;-0.1584320068359375;
2022-10-23 17:03:18;1666533825.382887;faceUp;0.711273193359375;0.917022705078125;-0.199188232421875;
2022-10-23 17:03:18;1666533825.433047;faceUp;1.066009521484375;0.70819091796875;-0.1099090576171875;
2022-10-23 17:03:18;1666533825.483107;faceUp;0.804901123046875;0.3301849365234375;0.0732574462890625;
2022-10-23 17:03:18;1666533825.533294;faceUp;0.749725341796875;0.573455810546875;-0.032501220703125;
2022-10-23 17:03:18;1666533825.583385;faceUp;0.601043701171875;0.655609130859375;-0.0806427001953125;
2022-10-23 17:03:18;1666533825.633569;faceUp;0.58026123046875;0.59454345703125;-0.057769775390625;
2022-10-23 17:03:18;1666533825.683632;faceUp;0.7807464599609375;0.651947021484375;-0.095489501953125;
2022-10-23 17:03:18;1666533825.733784;faceUp;1.1210784912109375;0.9794464111328125;-0.063568115234375;
2022-10-23 17:03:18;1666533825.784007;faceUp;1.166595458984375;1.17034912109375;-0.0058441162109375;
2022-10-23 17:03:18;1666533825.834244;faceUp;0.98358154296875;1.0765838623046875;0.5809478759765625;
2022-10-23 17:03:18;1666533825.884149;faceUp;0.8762664794921875;1.020904541015625;-0.336517333984375;
2022-10-23 17:03:18;1666533825.9343219;faceUp;0.7944488525390625;1.36004638671875;-0.263458251953125;
2022-10-23 17:03:18;1666533825.984428;faceUp;0.564788818359375;0.9580535888671875;-0.3685302734375;
2022-10-23 17:03:18;1666533826.034594;faceUp;0.503265380859375;0.536163330078125;-0.204376220703125;
2022-10-23 17:03:18;1666533826.084661;faceUp;0.4778594970703125;0.47430419921875;-0.2205963134765625;
2022-10-23 17:03:18;1666533826.134851;faceUp;-0.1101226806640625;0.4919281005859375;-0.222442626953125;
2022-10-23 17:03:18;1666533826.184907;faceUp;-0.281585693359375;0.022796630859375;-0.0046234130859375;
2022-10-23 17:03:18;1666533826.2350621;faceUp;1.7996673583984375;0.5359039306640625;1.71466064453125;
2022-10-23 17:03:18;1666533826.2851648;faceUp;1.581146240234375;0.71539306640625;0.7520904541015625;
2022-10-23 17:03:18;1666533826.3355231;faceUp;0.3586578369140625;1.1285552978515625;0.17877197265625;
2022-10-23 17:03:18;1666533826.385476;faceUp;-0.4785308837890625;0.5955657958984375;0.4944915771484375;
2022-10-23 17:03:18;1666533826.435598;faceUp;0.2247161865234375;1.173309326171875;-0.36102294921875;
2022-10-23 17:03:18;1666533826.48568;faceUp;0.519683837890625;1.08319091796875;-0.210906982421875;
2022-10-23 17:03:18;1666533826.535852;faceUp;0.828399658203125;1.063751220703125;-0.280731201171875;
2022-10-23 17:03:18;1666533826.585953;faceUp;1.32354736328125;0.777923583984375;-0.20050048828125;
2022-10-23 17:03:18;1666533826.63628;faceUp;0.7028350830078125;0.1848602294921875;0.1168365478515625;
2022-10-23 17:03:18;1666533826.6862311;faceUp;0.695404052734375;0.544342041015625;-0.0900726318359375;
2022-10-23 17:03:18;1666533826.736436;faceUp;0.61224365234375;0.6550750732421875;-0.093719482421875;
2022-10-23 17:03:18;1666533826.786449;faceUp;0.68560791015625;0.743988037109375;-0.026641845703125;
2022-10-23 17:03:18;1666533826.836806;faceUp;0.5489349365234375;0.5905609130859375;0.051116943359375;
2022-10-23 17:03:18;1666533826.886705;faceUp;0.95269775390625;1.0643310546875;-0.164276123046875;
2022-10-23 17:03:18;1666533826.936908;faceUp;1.0854949951171875;1.0991668701171875;0.0465087890625;
2022-10-23 17:03:18;1666533826.9877539;faceUp;1.0592498779296875;0.938232421875;0.504638671875;
2022-10-23 17:03:18;1666533827.037607;faceUp;0.9087677001953125;1.0517425537109375;0.0259552001953125;
2022-10-23 17:03:18;1666533827.0875812;faceUp;0.794708251953125;1.4278411865234375;-0.208892822265625;
2022-10-23 17:03:18;1666533827.137398;faceUp;0.65655517578125;1.290374755859375;-0.7840423583984375;
2022-10-23 17:03:18;1666533827.187827;faceUp;0.4125823974609375;0.5124359130859375;0.5301055908203125;
2022-10-23 17:03:18;1666533827.237824;faceUp;0.9188995361328125;0.5377349853515625;0.107666015625;
2022-10-23 17:03:18;1666533827.287706;faceUp;0.1518402099609375;0.6283416748046875;-0.268463134765625;
2022-10-23 17:03:18;1666533827.338056;faceUp;-0.1575164794921875;0.31219482421875;-0.20062255859375;
2022-10-23 17:03:18;1666533827.3879871;faceUp;0.2517547607421875;-0.1954345703125;0.7011566162109375;
2022-10-23 17:03:18;1666533827.4381561;faceUp;1.46990966796875;0.216705322265625;0.295440673828125;
2022-10-23 17:03:18;1666533827.4882379;faceUp;0.09893798828125;0.2416229248046875;0.4314727783203125;
2022-10-23 17:03:18;1666533827.5385342;faceUp;1.717041015625;2.30828857421875;1.6591033935546875;
2022-10-23 17:03:18;1666533827.588512;faceUp;-0.36492919921875;-0.0437164306640625;0.5318145751953125;
2022-10-23 17:03:18;1666533827.63867;faceUp;-0.277435302734375;0.6467132568359375;-0.1307525634765625;
2022-10-23 17:03:18;1666533827.6886702;faceUp;0.5733184814453125;1.4557952880859375;-0.1281890869140625;
2022-10-23 17:03:18;1666533827.738868;faceUp;0.4984588623046875;1.1720123291015625;-0.1096038818359375;
2022-10-23 17:03:18;1666533827.788991;faceUp;0.9883575439453125;1.24224853515625;-0.3160858154296875;
2022-10-23 17:03:18;1666533827.839171;faceUp;1.060302734375;0.7250213623046875;-0.1248779296875;
2022-10-23 17:03:18;1666533827.889425;faceUp;0.7432708740234375;0.2893829345703125;-0.0350189208984375;
2022-10-23 17:03:18;1666533827.9394221;faceUp;0.7454376220703125;0.460723876953125;-0.048309326171875;
2022-10-23 17:03:18;1666533827.9895492;faceUp;0.7556915283203125;0.6080780029296875;-0.0170440673828125;
2022-10-23 17:03:18;1666533828.039695;faceUp;0.568023681640625;0.5098419189453125;0.1051177978515625;
2022-10-23 17:03:18;1666533828.089744;faceUp;0.4813690185546875;0.7725677490234375;-0.23114013671875;
2022-10-23 17:03:18;1666533828.139957;faceUp;0.800537109375;1.358734130859375;0.3677825927734375;
2022-10-23 17:03:18;1666533828.1900492;faceUp;1.700531005859375;1.1422882080078125;0.3001861572265625;
2022-10-23 17:03:18;1666533828.240211;faceUp;0.996673583984375;0.985137939453125;0.018035888671875;
2022-10-23 17:03:18;1666533828.290268;faceUp;0.870574951171875;1.4562225341796875;-0.196014404296875;
2022-10-23 17:03:18;1666533828.340469;faceUp;0.63885498046875;1.586761474609375;-0.3800048828125;
2022-10-23 17:03:18;1666533828.390706;faceUp;0.189910888671875;0.73333740234375;-0.648406982421875;
2022-10-23 17:03:18;1666533828.440733;faceUp;0.362945556640625;0.29156494140625;0.4320526123046875;
2022-10-23 17:03:18;1666533828.490843;faceUp;0.6106414794921875;0.4530181884765625;-0.2196044921875;
2022-10-23 17:03:18;1666533828.5409532;faceUp;0.011077880859375;0.447845458984375;-0.2536468505859375;
2022-10-23 17:03:18;1666533828.5910811;faceUp;-0.2636871337890625;0.15997314453125;0.004425048828125;
2022-10-23 17:03:18;1666533828.641254;faceUp;1.524932861328125;0.5742950439453125;1.1432037353515625;
2022-10-23 17:03:18;1666533828.691307;faceUp;1.2199859619140625;0.553253173828125;0.2213134765625;
2022-10-23 17:03:18;1666533828.7414908;faceUp;0.3771820068359375;0.72991943359375;-0.172332763671875;
2022-10-23 17:03:18;1666533828.791594;faceUp;0.487060546875;1.0806732177734375;-0.2633209228515625;
2022-10-23 17:03:18;1666533828.841741;faceUp;0.1212158203125;0.6146087646484375;-0.021514892578125;
2022-10-23 17:03:18;1666533828.891999;faceUp;0.48388671875;0.997161865234375;-0.0857391357421875;
2022-10-23 17:03:18;1666533828.941992;faceUp;0.578887939453125;0.83404541015625;-0.1356658935546875;
2022-10-23 17:03:18;1666533828.9921222;faceUp;0.825927734375;0.7737274169921875;-0.23077392578125;
2022-10-23 17:03:18;1666533829.0422668;faceUp;0.8735809326171875;0.5072174072265625;0.151458740234375;
2022-10-23 17:03:18;1666533829.0923262;faceUp;0.7505950927734375;0.5252227783203125;-0.068206787109375;
2022-10-23 17:03:18;1666533829.142497;faceUp;0.6164703369140625;0.661865234375;-0.0943145751953125;
2022-10-23 17:03:18;1666533829.1926022;faceUp;0.574127197265625;0.6540069580078125;0.0003204345703125;
2022-10-23 17:03:18;1666533829.242763;faceUp;0.661102294921875;0.65625;-0.0019683837890625;
2022-10-23 17:03:18;1666533829.2928128;faceUp;0.907684326171875;0.849029541015625;-0.138336181640625;
2022-10-23 17:03:18;1666533829.342982;faceUp;1.1850433349609375;1.0666046142578125;-0.1009521484375;
2022-10-23 17:03:18;1666533829.3930712;faceUp;1.1916961669921875;0.98419189453125;0.306060791015625;
2022-10-23 17:03:18;1666533829.443451;faceUp;0.82501220703125;1.0388031005859375;0.080047607421875;
2022-10-23 17:03:18;1666533829.4933739;faceUp;0.8717803955078125;1.3145599365234375;-0.313995361328125;
2022-10-23 17:03:18;1666533829.543504;faceUp;0.6359100341796875;1.2196044921875;-0.6316680908203125;
2022-10-23 17:03:18;1666533829.593612;faceUp;0.6356964111328125;0.4786376953125;0.344635009765625;
2022-10-23 17:03:18;1666533829.6437879;faceUp;0.58233642578125;0.3581390380859375;-0.1061553955078125;
2022-10-23 17:03:18;1666533829.693841;faceUp;0.1956024169921875;0.5263671875;-0.225372314453125;
2022-10-23 17:03:18;1666533829.744032;faceUp;-0.1783294677734375;0.4030914306640625;-0.126373291015625;
2022-10-23 17:03:18;1666533829.794086;faceUp;0.6038665771484375;0.295562744140625;1.37164306640625;
2022-10-23 17:03:18;1666533829.84432;faceUp;1.8389739990234375;0.6994171142578125;0.3874969482421875;
2022-10-23 17:03:18;1666533829.894402;faceUp;0.6790313720703125;0.7893218994140625;0.121124267578125;
2022-10-23 17:03:18;1666533829.9446921;faceUp;0.41461181640625;0.7084197998046875;0.5031585693359375;
2022-10-23 17:03:18;1666533829.9948258;faceUp;0.0619659423828125;0.8240203857421875;-0.0419921875;
2022-10-23 17:03:18;1666533830.044744;faceUp;0.3878936767578125;0.9160003662109375;-0.077117919921875;
2022-10-23 17:03:18;1666533830.09481;faceUp;0.668212890625;0.968292236328125;-0.176513671875;
2022-10-23 17:03:18;1666533830.1450791;faceUp;0.9874725341796875;0.791473388671875;-0.271148681640625;
2022-10-23 17:03:18;1666533830.19514;faceUp;0.8355712890625;0.459686279296875;0.2021026611328125;
2022-10-23 17:03:18;1666533830.245306;faceUp;0.6384735107421875;0.486480712890625;-0.065582275390625;
2022-10-23 17:03:18;1666533830.2953548;faceUp;0.63079833984375;0.6739501953125;-0.106109619140625;
2022-10-23 17:03:18;1666533830.3455439;faceUp;0.6136016845703125;0.7111053466796875;0.0574188232421875;
2022-10-23 17:03:18;1666533830.3956099;faceUp;0.59423828125;0.6875457763671875;-0.012176513671875;
2022-10-23 17:03:18;1666533830.445835;faceUp;0.929290771484375;0.9814605712890625;-0.0665740966796875;
2022-10-23 17:03:18;1666533830.49593;faceUp;1.3557891845703125;0.7924957275390625;0.10504150390625;
2022-10-23 17:03:18;1666533830.546284;faceUp;1.1492462158203125;0.8497314453125;0.211761474609375;
2022-10-23 17:03:18;1666533830.596324;faceUp;0.80084228515625;1.046539306640625;0.3007965087890625;
2022-10-23 17:03:18;1666533830.6463509;faceUp;0.8766021728515625;1.3145904541015625;-0.1496124267578125;
2022-10-23 17:03:18;1666533830.697023;faceUp;0.6622467041015625;1.53558349609375;-0.434326171875;
2022-10-23 17:03:18;1666533830.746626;faceUp;0.58319091796875;0.7000274658203125;0.282379150390625;
2022-10-23 17:03:18;1666533830.79666;faceUp;0.483489990234375;0.4471282958984375;-0.0539398193359375;
2022-10-23 17:03:18;1666533830.8474488;faceUp;0.4258575439453125;0.4383697509765625;-0.3408050537109375;
2022-10-23 17:03:18;1666533830.897619;faceUp;-0.05145263671875;0.2753753662109375;-0.2234039306640625;
2022-10-23 17:03:18;1666533830.947524;faceUp;-0.247039794921875;-0.062957763671875;0.685028076171875;
2022-10-23 17:03:18;1666533830.997604;faceUp;1.914886474609375;0.8916473388671875;0.2831878662109375;
2022-10-23 17:03:18;1666533831.047544;faceUp;0.9647369384765625;0.622772216796875;-0.073333740234375;
2022-10-23 17:03:18;1666533831.0975928;faceUp;0.5332489013671875;0.9253082275390625;0.7838134765625;
2022-10-23 17:03:18;1666533831.147914;faceUp;-0.1907958984375;0.7850799560546875;-0.0076141357421875;
2022-10-23 17:03:18;1666533831.197763;faceUp;0.4901885986328125;1.0467071533203125;-0.3064422607421875;
2022-10-23 17:03:18;1666533831.2479281;faceUp;0.82611083984375;1.1165313720703125;-0.3461456298828125;
2022-10-23 17:03:18;1666533831.297967;faceUp;0.797454833984375;0.6746368408203125;-0.113189697265625;
2022-10-23 17:03:18;1666533831.348145;faceUp;0.8204193115234375;0.5078887939453125;-0.0074005126953125;
2022-10-23 17:03:18;1666533831.398206;faceUp;0.7896575927734375;0.5357666015625;0.0378265380859375;
2022-10-23 17:03:18;1666533831.448427;faceUp;0.632537841796875;0.6404571533203125;-0.0669403076171875;
2022-10-23 17:03:18;1666533831.498472;faceUp;0.5819854736328125;0.6130828857421875;0.0646209716796875;
2022-10-23 17:03:18;1666533831.5488029;faceUp;0.82037353515625;0.743255615234375;-0.12481689453125;
2022-10-23 17:03:18;1666533831.598731;faceUp;1.1659393310546875;1.0714263916015625;-0.041778564453125;
2022-10-23 17:03:18;1666533831.6490722;faceUp;1.3486785888671875;1.0832672119140625;0.28594970703125;
2022-10-23 17:03:18;1666533831.6990619;faceUp;0.9747467041015625;0.923095703125;0.537811279296875;
2022-10-23 17:03:18;1666533831.7491832;faceUp;0.895263671875;0.9873504638671875;-0.297882080078125;
2022-10-23 17:03:18;1666533831.799199;faceUp;0.84869384765625;1.3930511474609375;-0.2890472412109375;
2022-10-23 17:03:18;1666533831.8493938;faceUp;0.5227813720703125;1.0687103271484375;-0.4754791259765625;
2022-10-23 17:03:18;1666533831.899478;faceUp;0.414703369140625;0.420745849609375;-0.0100250244140625;
2022-10-23 17:03:18;1666533831.9496431;faceUp;0.49822998046875;0.45574951171875;-0.1575927734375;
2022-10-23 17:03:18;1666533831.9997349;faceUp;0.041900634765625;0.5234832763671875;-0.2691192626953125;
2022-10-23 17:03:18;1666533832.049936;faceUp;-0.36346435546875;0.1360015869140625;-0.0347747802734375;
2022-10-23 17:03:18;1666533832.099975;faceUp;1.98809814453125;0.6473236083984375;0.9213409423828125;
2022-10-23 17:03:18;1666533832.150241;faceUp;1.206573486328125;0.3128509521484375;0.397735595703125;
2022-10-23 17:03:18;1666533832.200259;faceUp;0.2200469970703125;0.406097412109375;-0.1336212158203125;
2022-10-23 17:03:18;1666533832.2503939;faceUp;1.1431121826171875;1.8919219970703125;1.4068603515625;
2022-10-23 17:03:18;1666533832.3004951;faceUp;0.0644378662109375;0.6195526123046875;-0.03125;
2022-10-23 17:03:18;1666533832.350717;faceUp;0.284423828125;0.9011383056640625;-0.09393310546875;
2022-10-23 17:03:18;1666533832.400738;faceUp;0.810943603515625;1.203094482421875;-0.3165283203125;
2022-10-23 17:03:18;1666533832.450937;faceUp;0.8276519775390625;0.71881103515625;-0.148101806640625;
2022-10-23 17:03:18;1666533832.50123;faceUp;0.821441650390625;0.46728515625;-0.0819244384765625;
2022-10-23 17:03:18;1666533832.551165;faceUp;0.6625213623046875;0.5445098876953125;0.19061279296875;
2022-10-23 17:03:18;1666533832.601324;faceUp;0.5886688232421875;0.6583404541015625;-0.087005615234375;
2022-10-23 17:03:18;1666533832.651492;faceUp;0.6249542236328125;0.6830596923828125;0.02105712890625;
2022-10-23 17:03:18;1666533832.701561;faceUp;0.724609375;0.7308197021484375;-0.035186767578125;
2022-10-23 17:03:18;1666533832.75183;faceUp;0.879119873046875;0.9424591064453125;-0.0653839111328125;
2022-10-23 17:03:18;1666533832.801749;faceUp;1.131072998046875;1.1413421630859375;0.1001434326171875;
2022-10-23 17:03:18;1666533832.851944;faceUp;1.16046142578125;0.8798675537109375;0.051300048828125;
2022-10-23 17:03:18;1666533832.902;faceUp;0.9189910888671875;0.9893646240234375;0.237579345703125;
2022-10-23 17:03:18;1666533832.952363;faceUp;0.88433837890625;1.242645263671875;-0.1670074462890625;
2022-10-23 17:03:18;1666533833.002341;faceUp;0.5152435302734375;1.177154541015625;-0.3816070556640625;
2022-10-23 17:03:18;1666533833.052465;faceUp;0.3321075439453125;0.568572998046875;-0.7268829345703125;
2022-10-23 17:03:18;1666533833.102583;faceUp;0.5476531982421875;0.3688201904296875;0.2732391357421875;
2022-10-23 17:03:18;1666533833.152728;faceUp;0.7848052978515625;0.616485595703125;-0.26470947265625;
2022-10-23 17:03:18;1666533833.202925;faceUp;0.0633697509765625;0.664764404296875;-0.200408935546875;
2022-10-23 17:03:18;1666533833.252977;faceUp;-0.3651885986328125;0.4738006591796875;0.1603851318359375;
2022-10-23 17:03:18;1666533833.3030648;faceUp;1.5115814208984375;0.6528167724609375;1.0533599853515625;
2022-10-23 17:03:18;1666533833.353179;faceUp;1.523712158203125;0.0113067626953125;0.288330078125;
2022-10-23 17:03:18;1666533833.4032512;faceUp;0.718414306640625;0.21490478515625;-0.356903076171875;
2022-10-23 17:03:18;1666533833.45387;faceUp;1.5159454345703125;2.105682373046875;2.41143798828125;
2022-10-23 17:03:18;1666533833.503518;faceUp;-0.3820953369140625;0.647491455078125;0.196563720703125;
2022-10-23 17:03:18;1666533833.553906;faceUp;0.1228179931640625;0.9001617431640625;-0.0911865234375;
2022-10-23 17:03:18;1666533833.603805;faceUp;0.562164306640625;1.0855865478515625;-0.200775146484375;
2022-10-23 17:03:18;1666533833.653997;faceUp;0.7552337646484375;0.8669586181640625;-0.2568817138671875;
2022-10-23 17:03:18;1666533833.704022;faceUp;1.14739990234375;0.675323486328125;-0.201385498046875;
2022-10-23 17:03:18;1666533833.754281;faceUp;0.93218994140625;0.344818115234375;0.1942596435546875;
2022-10-23 17:03:18;1666533833.804301;faceUp;0.5912628173828125;0.553497314453125;-0.0759124755859375;
2022-10-23 17:03:18;1666533833.8544931;faceUp;0.6205596923828125;0.72625732421875;-0.097412109375;
2022-10-23 17:03:18;1666533833.90454;faceUp;0.542083740234375;0.6790924072265625;-0.0074462890625;
2022-10-23 17:03:18;1666533833.954722;faceUp;0.6999969482421875;0.7592315673828125;-0.049896240234375;
2022-10-23 17:03:18;1666533834.004843;faceUp;0.9978485107421875;0.9901275634765625;-0.1474151611328125;
2022-10-23 17:03:18;1666533834.055074;faceUp;1.126007080078125;1.1207427978515625;-0.202911376953125;
2022-10-23 17:03:18;1666533834.105062;faceUp;1.1135711669921875;1.02313232421875;1.4281005859375;
2022-10-23 17:03:18;1666533834.155233;faceUp;0.91357421875;0.94293212890625;-0.0872802734375;
2022-10-23 17:03:18;1666533834.205308;faceUp;0.70172119140625;1.0027923583984375;-0.218109130859375;
2022-10-23 17:03:18;1666533834.25548;faceUp;0.6578826904296875;1.0977935791015625;-0.5124969482421875;
2022-10-23 17:03:18;1666533834.305613;faceUp;0.624725341796875;0.54522705078125;0.3691253662109375;
2022-10-23 17:03:18;1666533834.355799;faceUp;0.7458648681640625;0.5402679443359375;-0.2082977294921875;
2022-10-23 17:03:18;1666533834.4058108;faceUp;0.4030609130859375;0.7039337158203125;-0.1821136474609375;
2022-10-23 17:03:18;1666533834.456006;faceUp;0.0155181884765625;0.577728271484375;-0.2513275146484375;
2022-10-23 17:03:18;1666533834.5063071;faceUp;-0.3321685791015625;0.022247314453125;0.276763916015625;
2022-10-23 17:03:18;1666533834.556343;faceUp;1.93109130859375;0.436431884765625;0.7717132568359375;
2022-10-23 17:03:18;1666533834.6063619;faceUp;1.721160888671875;0.829986572265625;0.49810791015625;
2022-10-23 17:03:18;1666533834.656599;faceUp;0.5833282470703125;0.3186798095703125;0.00335693359375;
2022-10-23 17:03:18;1666533834.706614;faceUp;-1.36016845703125;0.440093994140625;1.6266326904296875;
2022-10-23 17:03:18;1666533834.757494;faceUp;0.353790283203125;1.3726043701171875;-0.360687255859375;
2022-10-23 17:03:18;1666533834.807643;faceUp;0.69158935546875;1.195892333984375;0.017669677734375;
2022-10-23 17:03:18;1666533834.857575;faceUp;0.8390045166015625;0.9710235595703125;-0.2146148681640625;
2022-10-23 17:03:18;1666533834.907558;faceUp;1.174652099609375;0.7279510498046875;-0.180084228515625;
2022-10-23 17:03:18;1666533834.957495;faceUp;0.71240234375;0.295684814453125;0.0228271484375;
2022-10-23 17:03:18;1666533835.0076451;faceUp;0.6851348876953125;0.605560302734375;-0.067535400390625;
2022-10-23 17:03:18;1666533835.0576181;faceUp;0.5868988037109375;0.654754638671875;-0.07763671875;
2022-10-23 17:03:18;1666533835.107717;faceUp;0.5219879150390625;0.581451416015625;-0.0308837890625;
2022-10-23 17:03:18;1666533835.157812;faceUp;0.6989898681640625;0.71795654296875;-0.042877197265625;
2022-10-23 17:03:18;1666533835.207891;faceUp;1.0614776611328125;1.088958740234375;-0.027740478515625;
2022-10-23 17:03:18;1666533835.2580528;faceUp;1.300445556640625;1.0245513916015625;0.56036376953125;
2022-10-23 17:03:18;1666533835.308167;faceUp;0.9766387939453125;0.8785247802734375;0.2167816162109375;
2022-10-23 17:03:18;1666533835.358344;faceUp;0.8325958251953125;1.0142669677734375;-0.1303863525390625;
2022-10-23 17:03:18;1666533835.408396;faceUp;0.7539215087890625;1.2923431396484375;-0.15362548828125;
2022-10-23 17:03:18;1666533835.45857;faceUp;0.6327972412109375;1.1769561767578125;-0.4824066162109375;
2022-10-23 17:03:18;1666533835.508654;faceUp;0.506683349609375;0.5390777587890625;0.35540771484375;
2022-10-23 17:03:18;1666533835.558821;faceUp;0.59991455078125;0.6197509765625;0.0217742919921875;
2022-10-23 17:03:18;1666533835.608923;faceUp;0.3677215576171875;0.660369873046875;-0.2836761474609375;
2022-10-23 17:03:18;1666533835.659144;faceUp;-0.1706390380859375;0.3464508056640625;-0.1680755615234375;
2022-10-23 17:03:18;1666533835.7091908;faceUp;0.2076416015625;-0.012054443359375;1.03692626953125;
2022-10-23 17:03:18;1666533835.7593951;faceUp;1.6267547607421875;0.6050872802734375;0.2765960693359375;
2022-10-23 17:03:18;1666533835.809462;faceUp;0.5821685791015625;0.3795166015625;0.25341796875;
2022-10-23 17:03:18;1666533835.859641;faceUp;0.2396240234375;1.9661407470703125;1.993682861328125;
2022-10-23 17:03:18;1666533835.909658;faceUp;0.1963653564453125;0.446502685546875;-0.29608154296875;
2022-10-23 17:03:18;1666533835.9598331;faceUp;0.129913330078125;0.658966064453125;0.1952362060546875;
2022-10-23 17:03:18;1666533836.009953;faceUp;0.714141845703125;1.2503204345703125;-0.207672119140625;
2022-10-23 17:03:18;1666533836.060107;faceUp;0.8868560791015625;0.8648529052734375;-0.1414794921875;
2022-10-23 17:03:18;1666533836.110189;faceUp;0.9702606201171875;0.5061187744140625;0.0677337646484375;
2022-10-23 17:03:18;1666533836.16033;faceUp;0.7912750244140625;0.37261962890625;-0.1114044189453125;
2022-10-23 17:03:18;1666533836.2104611;faceUp;0.622589111328125;0.5927581787109375;-0.086456298828125;
2022-10-23 17:03:18;1666533836.26058;faceUp;0.5900421142578125;0.69061279296875;-0.1126556396484375;
2022-10-23 17:03:18;1666533836.3107061;faceUp;0.591217041015625;0.70574951171875;0.07403564453125;
2022-10-23 17:03:18;1666533836.360858;faceUp;0.6500244140625;0.77557373046875;-0.007568359375;
2022-10-23 17:03:18;1666533836.410924;faceUp;0.900634765625;1.007598876953125;-0.121307373046875;
2022-10-23 17:03:18;1666533836.461098;faceUp;1.497772216796875;0.93450927734375;0.4471282958984375;
2022-10-23 17:03:18;1666533836.511188;faceUp;1.107635498046875;0.8826904296875;0.240203857421875;
2022-10-23 17:03:18;1666533836.561533;faceUp;0.9037933349609375;1.0568084716796875;-0.109954833984375;
2022-10-23 17:03:18;1666533836.611469;faceUp;0.7927093505859375;1.342315673828125;-0.2135467529296875;
2022-10-23 17:03:18;1666533836.6616402;faceUp;0.515625;1.222320556640625;-0.4673919677734375;
2022-10-23 17:03:18;1666533836.711698;faceUp;0.4737396240234375;0.5884246826171875;0.094024658203125;
2022-10-23 17:03:18;1666533836.761869;faceUp;0.6974334716796875;0.4331817626953125;-0.0147552490234375;
2022-10-23 17:03:18;1666533836.811967;faceUp;0.2147216796875;0.6008758544921875;-0.32330322265625;
2022-10-23 17:03:18;1666533836.862144;faceUp;-0.2340545654296875;0.342742919921875;-0.16290283203125;
2022-10-23 17:03:18;1666533836.9122062;faceUp;0.2491302490234375;-0.017608642578125;1.4008331298828125;
2022-10-23 17:03:18;1666533836.962381;faceUp;1.789825439453125;0.58819580078125;0.2720794677734375;
2022-10-23 17:03:18;1666533837.01258;faceUp;0.2970123291015625;0.253143310546875;0.0812225341796875;
2022-10-23 17:03:18;1666533837.062702;faceUp;2.0496063232421875;2.345458984375;0.7670745849609375;
2022-10-23 17:03:18;1666533837.1129189;faceUp;-0.179534912109375;0.168670654296875;0.046295166015625;
2022-10-23 17:03:18;1666533837.162867;faceUp;0.154327392578125;0.8196868896484375;-0.0581512451171875;
2022-10-23 17:03:18;1666533837.212978;faceUp;0.7956085205078125;1.479522705078125;0.13751220703125;
2022-10-23 17:03:18;1666533837.263161;faceUp;0.8333282470703125;0.9635772705078125;-0.2833709716796875;
2022-10-23 17:03:18;1666533837.313245;faceUp;0.9739227294921875;0.587127685546875;-0.02490234375;
2022-10-23 17:03:18;1666533837.3633819;faceUp;0.6949615478515625;0.4122161865234375;0.0139312744140625;
2022-10-23 17:03:18;1666533837.413485;faceUp;0.6229248046875;0.614044189453125;-0.08935546875;
2022-10-23 17:03:18;1666533837.4636822;faceUp;0.5818328857421875;0.6475830078125;-0.1241302490234375;
2022-10-23 17:03:18;1666533837.513733;faceUp;0.5686492919921875;0.65008544921875;-0.03704833984375;
2022-10-23 17:03:18;1666533837.563926;faceUp;0.5894622802734375;0.719757080078125;0.0398406982421875;
2022-10-23 17:03:18;1666533837.614198;faceUp;0.8362274169921875;0.940704345703125;-0.0815277099609375;
2022-10-23 17:03:18;1666533837.664208;faceUp;1.200927734375;1.0021514892578125;-0.15826416015625;
2022-10-23 17:03:18;1666533837.7142448;faceUp;1.1357879638671875;0.922576904296875;0.22882080078125;
2022-10-23 17:03:18;1666533837.7644491;faceUp;0.8247833251953125;0.9216461181640625;0.334228515625;
2022-10-23 17:03:18;1666533837.814523;faceUp;0.9119110107421875;1.2644195556640625;-0.161773681640625;
2022-10-23 17:03:18;1666533837.864682;faceUp;0.698944091796875;1.4987640380859375;-0.3509063720703125;
2022-10-23 17:03:18;1666533837.914713;faceUp;0.324737548828125;0.801116943359375;-0.462005615234375;
2022-10-23 17:03:18;1666533837.964929;faceUp;0.4759521484375;0.56671142578125;0.071807861328125;
2022-10-23 17:03:18;1666533838.0149999;faceUp;0.5955047607421875;0.58843994140625;-0.110595703125;
2022-10-23 17:03:18;1666533838.0651999;faceUp;-0.0779876708984375;0.438934326171875;-0.1616058349609375;
2022-10-23 17:03:18;1666533838.1152658;faceUp;-0.241851806640625;0.162567138671875;0.0092010498046875;
2022-10-23 17:03:18;1666533838.165432;faceUp;1.4823150634765625;0.2078399658203125;1.321624755859375;
2022-10-23 17:03:18;1666533838.215522;faceUp;1.64544677734375;0.602996826171875;0.2251129150390625;
2022-10-23 17:03:18;1666533838.265708;faceUp;0.70489501953125;0.8624114990234375;0.2532958984375;
2022-10-23 17:03:18;1666533838.315812;faceUp;0.571380615234375;1.348236083984375;0.5513458251953125;
2022-10-23 17:03:18;1666533838.3659902;faceUp;-0.25360107421875;0.395263671875;-0.03961181640625;
2022-10-23 17:03:18;1666533838.416031;faceUp;0.2554473876953125;0.809661865234375;-0.1184539794921875;
2022-10-23 17:03:18;1666533838.466243;faceUp;0.9536285400390625;1.4245147705078125;-0.2901153564453125;
2022-10-23 17:03:18;1666533838.5163379;faceUp;1.109710693359375;0.9351043701171875;-0.2829132080078125;
2022-10-23 17:03:18;1666533838.56651;faceUp;0.7550048828125;0.389190673828125;0.1517486572265625;
2022-10-23 17:03:18;1666533838.616617;faceUp;0.566864013671875;0.4691314697265625;-0.1185150146484375;
2022-10-23 17:03:18;1666533838.667408;faceUp;0.6295166015625;0.726806640625;-0.1148834228515625;
2022-10-23 17:03:18;1666533838.717448;faceUp;0.5268707275390625;0.6282196044921875;-0.000213623046875;
2022-10-23 17:03:18;1666533838.767548;faceUp;0.5110321044921875;0.6479644775390625;0.0084381103515625;
2022-10-23 17:03:18;1666533838.8175821;faceUp;0.77197265625;0.928192138671875;-0.056549072265625;
2022-10-23 17:03:18;1666533838.86747;faceUp;1.5074005126953125;1.0460662841796875;0.48699951171875;
2022-10-23 17:03:18;1666533838.91754;faceUp;1.143310546875;0.96429443359375;0.05047607421875;
2022-10-23 17:03:18;1666533838.9678621;faceUp;0.776336669921875;0.9746856689453125;0.3721771240234375;
2022-10-23 17:03:18;1666533839.017638;faceUp;0.861328125;1.1759796142578125;-0.1714630126953125;
2022-10-23 17:03:18;1666533839.067713;faceUp;0.6256866455078125;1.2685089111328125;-0.2965545654296875;
2022-10-23 17:03:18;1666533839.117938;faceUp;0.3919830322265625;0.8209991455078125;-0.5307159423828125;
2022-10-23 17:03:18;1666533839.1679869;faceUp;0.6938018798828125;0.502288818359375;0.496551513671875;
2022-10-23 17:03:18;1666533839.218148;faceUp;0.662017822265625;0.6425018310546875;-0.1267547607421875;
2022-10-23 17:03:18;1666533839.268254;faceUp;0.068878173828125;0.6209564208984375;-0.2158050537109375;
2022-10-23 17:03:18;1666533839.31832;faceUp;-0.2870635986328125;0.2263641357421875;0.0502471923828125;
2022-10-23 17:03:18;1666533839.368468;faceUp;1.4659576416015625;-0.0006256103515625;1.2201690673828125;
2022-10-23 17:03:18;1666533839.418561;faceUp;1.676605224609375;0.504486083984375;0.324737548828125;
2022-10-23 17:03:18;1666533839.4687681;faceUp;0.84564208984375;1.03424072265625;0.4436798095703125;
2022-10-23 17:03:18;1666533839.518845;faceUp;0.0159912109375;0.68438720703125;0.0968017578125;
2022-10-23 17:03:18;1666533839.5689611;faceUp;0.0187835693359375;0.7682647705078125;-0.01385498046875;
2022-10-23 17:03:18;1666533839.6191158;faceUp;0.46966552734375;1.185943603515625;-0.1422271728515625;
2022-10-23 17:03:18;1666533839.669456;faceUp;0.6539764404296875;1.010955810546875;-0.12811279296875;
2022-10-23 17:03:18;1666533839.719336;faceUp;0.9135589599609375;0.8464202880859375;-0.28424072265625;
2022-10-23 17:03:18;1666533839.769527;faceUp;0.900482177734375;0.4283447265625;0.065277099609375;
2022-10-23 17:03:18;1666533839.819588;faceUp;0.65679931640625;0.454132080078125;-0.0908203125;
2022-10-23 17:03:18;1666533839.869792;faceUp;0.6111297607421875;0.6953582763671875;-0.0906524658203125;
2022-10-23 17:03:18;1666533839.919859;faceUp;0.564117431640625;0.6478424072265625;-0.023223876953125;
2022-10-23 17:03:18;1666533839.970025;faceUp;0.600341796875;0.63836669921875;-0.008148193359375;
2022-10-23 17:03:18;1666533840.020226;faceUp;0.9249725341796875;0.8758544921875;-0.1419677734375;
2022-10-23 17:03:18;1666533840.070317;faceUp;1.120361328125;1.062774658203125;0.886199951171875;
2022-10-23 17:03:18;1666533840.12038;faceUp;1.1966552734375;0.9252777099609375;-0.240081787109375;
2022-10-23 17:03:18;1666533840.170735;faceUp;0.743438720703125;1.096588134765625;0.70062255859375;
2022-10-23 17:03:18;1666533840.220638;faceUp;0.93157958984375;1.2720794677734375;-0.1636810302734375;
2022-10-23 17:03:18;1666533840.270812;faceUp;0.6056976318359375;1.458984375;-0.4888458251953125;
2022-10-23 17:03:18;1666533840.3208752;faceUp;0.3063812255859375;0.7034912109375;-0.58636474609375;
2022-10-23 17:03:18;1666533840.371068;faceUp;0.4810943603515625;0.464996337890625;0.2142181396484375;
2022-10-23 17:03:18;1666533840.421139;faceUp;0.737030029296875;0.5395050048828125;-0.071441650390625;
2022-10-23 17:03:18;1666533840.471322;faceUp;-0.09716796875;0.58154296875;-0.2096405029296875;
2022-10-23 17:03:18;1666533840.521385;faceUp;-0.2513275146484375;0.2634735107421875;0.26385498046875;
2022-10-23 17:03:18;1666533840.5715718;faceUp;1.7969970703125;0.2643890380859375;0.6492767333984375;
2022-10-23 17:03:18;1666533840.621643;faceUp;1.128570556640625;0.3842010498046875;0.3963775634765625;
2022-10-23 17:03:18;1666533840.671999;faceUp;0.3291015625;1.3621826171875;1.51025390625;
2022-10-23 17:03:18;1666533840.721908;faceUp;0.168243408203125;0.4269256591796875;-0.3543701171875;
2022-10-23 17:03:18;1666533840.7720962;faceUp;0.174407958984375;0.6075592041015625;-0.0478668212890625;
2022-10-23 17:03:18;1666533840.8221521;faceUp;0.6975555419921875;1.1248321533203125;-0.191864013671875;
2022-10-23 17:03:18;1666533840.872356;faceUp;0.85601806640625;0.96405029296875;-0.0316009521484375;
2022-10-23 17:03:18;1666533840.9223928;faceUp;0.6336212158203125;0.64697265625;-0.0930328369140625;
2022-10-23 17:03:18;1666533840.972584;faceUp;0.7908477783203125;0.5703277587890625;-0.1093902587890625;
2022-10-23 17:03:18;1666533841.022665;faceUp;0.6099090576171875;0.5182037353515625;-0.033233642578125;
2022-10-23 17:03:18;1666533841.0728312;faceUp;0.63323974609375;0.7109832763671875;-0.026336669921875;
2022-10-23 17:03:18;1666533841.122915;faceUp;0.5743560791015625;0.64544677734375;-0.047607421875;
2022-10-23 17:03:18;1666533841.173255;faceUp;0.667938232421875;0.7632293701171875;-0.004119873046875;
2022-10-23 17:03:18;1666533841.2231112;faceUp;0.67938232421875;0.7401123046875;-0.08843994140625;
2022-10-23 17:03:18;1666533841.273344;faceUp;0.9953765869140625;1.00848388671875;-0.109100341796875;
2022-10-23 17:03:18;1666533841.323443;faceUp;1.4434356689453125;0.9216156005859375;0.365966796875;
2022-10-23 17:03:18;1666533841.3736691;faceUp;1.0135498046875;0.9136505126953125;0.5684661865234375;
2022-10-23 17:03:18;1666533841.423676;faceUp;0.9103546142578125;0.96136474609375;-0.2415924072265625;
2022-10-23 17:03:18;1666533841.473866;faceUp;0.8133392333984375;1.1752166748046875;-0.2994384765625;
2022-10-23 17:03:18;1666533841.523926;faceUp;0.6161346435546875;1.1062774658203125;-0.7560272216796875;
2022-10-23 17:03:18;1666533841.57413;faceUp;0.62200927734375;0.448272705078125;0.9793701171875;
2022-10-23 17:03:18;1666533841.624208;faceUp;0.68255615234375;0.56207275390625;-0.33782958984375;
2022-10-23 17:03:18;1666533841.6743932;faceUp;0.5124053955078125;0.675933837890625;-0.3013916015625;
2022-10-23 17:03:18;1666533841.7244449;faceUp;-0.2999114990234375;0.4267425537109375;-0.1834869384765625;
2022-10-23 17:03:18;1666533841.774636;faceUp;-0.309967041015625;0.164215087890625;0.65545654296875;
2022-10-23 17:03:18;1666533841.824698;faceUp;1.8683624267578125;0.771484375;0.4826812744140625;
2022-10-23 17:03:18;1666533841.874973;faceUp;0.983551025390625;0.070556640625;0.0754852294921875;
2022-10-23 17:03:18;1666533841.924969;faceUp;1.630462646484375;1.192474365234375;1.6461181640625;
2022-10-23 17:03:18;1666533841.9750729;faceUp;-0.175323486328125;0.678558349609375;0.135650634765625;
2022-10-23 17:03:18;1666533842.0251598;faceUp;-0.0440521240234375;0.7235870361328125;-0.00970458984375;
2022-10-23 17:03:18;1666533842.0754051;faceUp;0.5735015869140625;1.1890869140625;-0.171905517578125;
2022-10-23 17:03:18;1666533842.125464;faceUp;0.7405242919921875;0.989532470703125;-0.2236785888671875;
2022-10-23 17:03:18;1666533842.175628;faceUp;1.1100006103515625;0.77593994140625;-0.194061279296875;
2022-10-23 17:03:18;1666533842.22631;faceUp;0.7788238525390625;0.442840576171875;-0.0011138916015625;
2022-10-23 17:03:18;1666533842.275908;faceUp;0.6065826416015625;0.5050048828125;-0.1084442138671875;
2022-10-23 17:03:18;1666533842.326023;faceUp;0.565399169921875;0.6514892578125;-0.04779052734375;
2022-10-23 17:03:18;1666533842.376157;faceUp;0.656280517578125;0.680511474609375;-0.044891357421875;
2022-10-23 17:03:18;1666533842.426231;faceUp;0.623504638671875;0.58135986328125;0.022216796875;
2022-10-23 17:03:18;1666533842.47639;faceUp;0.8983306884765625;0.9638214111328125;-0.07952880859375;
2022-10-23 17:03:18;1666533842.526499;faceUp;0.8641510009765625;1.21490478515625;0.029876708984375;
2022-10-23 17:03:18;1666533842.5774279;faceUp;1.19891357421875;0.91412353515625;0.051544189453125;
2022-10-23 17:03:18;1666533842.627458;faceUp;1.0151214599609375;0.9214630126953125;0.299530029296875;
2022-10-23 17:03:18;1666533842.677442;faceUp;0.879302978515625;1.32147216796875;-0.252166748046875;
2022-10-23 17:03:18;1666533842.727013;faceUp;0.647552490234375;1.2874755859375;-0.463287353515625;
2022-10-23 17:03:18;1666533842.777382;faceUp;0.709503173828125;0.7450408935546875;0.6288604736328125;
2022-10-23 17:03:18;1666533842.827248;faceUp;0.543060302734375;0.535675048828125;-0.212890625;
2022-10-23 17:03:18;1666533842.877495;faceUp;0.4333648681640625;0.5440826416015625;-0.336029052734375;
2022-10-23 17:03:18;1666533842.927517;faceUp;-0.1366729736328125;0.439666748046875;-0.304534912109375;
2022-10-23 17:03:18;1666533842.9776812;faceUp;-0.274566650390625;0.015045166015625;0.171539306640625;
2022-10-23 17:03:18;1666533843.027794;faceUp;1.636138916015625;0.51690673828125;0.757110595703125;
2022-10-23 17:03:18;1666533843.077942;faceUp;1.0843963623046875;0.293792724609375;0.2877349853515625;
2022-10-23 17:03:18;1666533843.128041;faceUp;1.2009735107421875;2.0571136474609375;1.4220123291015625;
2022-10-23 17:03:18;1666533843.178173;faceUp;-0.2050018310546875;0.334930419921875;-0.167999267578125;
2022-10-23 17:03:18;1666533843.228214;faceUp;-0.2186126708984375;0.6154327392578125;0.002838134765625;
2022-10-23 17:03:18;1666533843.278637;faceUp;0.3868255615234375;1.1766357421875;-0.037017822265625;
2022-10-23 17:03:18;1666533843.328517;faceUp;0.8781890869140625;1.242156982421875;-0.3066253662109375;
2022-10-23 17:03:18;1666533843.3787541;faceUp;1.1572723388671875;0.7966461181640625;-0.17132568359375;
2022-10-23 17:03:18;1666533843.428765;faceUp;0.8964080810546875;0.344696044921875;0.23638916015625;
2022-10-23 17:03:18;1666533843.4789639;faceUp;0.6905975341796875;0.4495391845703125;-0.1544036865234375;
2022-10-23 17:03:18;1666533843.529016;faceUp;0.6883087158203125;0.7011260986328125;-0.0491943359375;
2022-10-23 17:03:18;1666533843.579156;faceUp;0.6067352294921875;0.6790313720703125;-0.0175018310546875;
2022-10-23 17:03:18;1666533843.629354;faceUp;0.49932861328125;0.6044921875;0.1105804443359375;
2022-10-23 17:03:18;1666533843.6795459;faceUp;0.7477264404296875;0.8101043701171875;-0.09417724609375;
2022-10-23 17:03:18;1666533843.7296;faceUp;0.933349609375;1.0921173095703125;0.018157958984375;
2022-10-23 17:03:18;1666533843.779849;faceUp;1.2917327880859375;0.8343963623046875;0.0623931884765625;
2022-10-23 17:03:18;1666533843.829802;faceUp;1.2156219482421875;0.6625823974609375;0.6365509033203125;
2022-10-23 17:03:18;1666533843.879973;faceUp;0.925201416015625;0.9781341552734375;-0.1909637451171875;
2022-10-23 17:03:18;1666533843.930059;faceUp;0.80316162109375;1.3498992919921875;-0.168212890625;
2022-10-23 17:03:18;1666533843.9802089;faceUp;0.54217529296875;1.326019287109375;-0.4735565185546875;
2022-10-23 17:03:18;1666533844.030371;faceUp;0.388946533203125;0.678863525390625;0.3624267578125;
2022-10-23 17:03:18;1666533844.080498;faceUp;0.5038909912109375;0.594635009765625;0.029144287109375;
2022-10-23 17:03:18;1666533844.130573;faceUp;0.1389617919921875;0.5924072265625;-0.240570068359375;
2022-10-23 17:03:18;1666533844.180722;faceUp;-0.084869384765625;0.1179046630859375;-0.1822052001953125;
2022-10-23 17:03:18;1666533844.230756;faceUp;1.0084991455078125;-0.300537109375;1.67822265625;
2022-10-23 17:03:18;1666533844.281169;faceUp;1.443878173828125;0.680877685546875;0.4491729736328125;
2022-10-23 17:03:18;1666533844.331115;faceUp;0.810943603515625;1.249755859375;0.70904541015625;
2022-10-23 17:03:18;1666533844.381247;faceUp;0.025970458984375;0.6387939453125;0.4891815185546875;
2022-10-23 17:03:18;1666533844.4313211;faceUp;-0.2121734619140625;0.7248382568359375;0.0917510986328125;
2022-10-23 17:03:18;1666533844.481497;faceUp;0.3517303466796875;1.0128021240234375;-0.16802978515625;
2022-10-23 17:03:18;1666533844.531575;faceUp;0.8481597900390625;1.243133544921875;-0.267730712890625;
2022-10-23 17:03:18;1666533844.581768;faceUp;1.0292205810546875;0.87103271484375;-0.16717529296875;
2022-10-23 17:03:18;1666533844.63198;faceUp;0.9591522216796875;0.368377685546875;0.0078125;
2022-10-23 17:03:18;1666533844.682012;faceUp;0.7998809814453125;0.3295440673828125;0.02093505859375;
2022-10-23 17:03:18;1666533844.732086;faceUp;0.6822509765625;0.6328277587890625;-0.022003173828125;
2022-10-23 17:03:18;1666533844.782274;faceUp;0.6021728515625;0.6714935302734375;-0.0897064208984375;
2022-10-23 17:03:18;1666533844.832525;faceUp;0.515869140625;0.5546112060546875;0.00933837890625;
2022-10-23 17:03:18;1666533844.882494;faceUp;0.9633026123046875;0.8592529296875;-0.0757904052734375;
2022-10-23 17:03:18;1666533844.9325671;faceUp;0.997283935546875;1.0800628662109375;-0.0486602783203125;
2022-10-23 17:03:18;1666533844.982782;faceUp;0.95745849609375;1.089752197265625;0.7918243408203125;
2022-10-23 17:03:18;1666533845.032841;faceUp;1.1107025146484375;0.945220947265625;0.3936614990234375;
2022-10-23 17:03:18;1666533845.083016;faceUp;0.8931884765625;1.0688629150390625;-0.2239532470703125;
2022-10-23 17:03:18;1666533845.1331248;faceUp;0.7792510986328125;1.242279052734375;-0.3951416015625;
2022-10-23 17:03:18;1666533845.183269;faceUp;0.52197265625;0.7884063720703125;-0.3613433837890625;
2022-10-23 17:03:18;1666533845.233295;faceUp;0.643218994140625;0.5674896240234375;-0.021331787109375;
2022-10-23 17:03:18;1666533845.283524;faceUp;0.3980560302734375;0.64324951171875;-0.1492462158203125;
2022-10-23 17:03:18;1666533845.333599;faceUp;0.06512451171875;0.5656890869140625;-0.2828826904296875;
2022-10-23 17:03:18;1666533845.383802;faceUp;-0.27838134765625;0.201171875;-0.0348052978515625;
2022-10-23 17:03:18;1666533845.433858;faceUp;1.5751800537109375;0.3077850341796875;1.690032958984375;
2022-10-23 17:03:18;1666533845.4840279;faceUp;1.5572967529296875;0.599853515625;0.4035491943359375;
2022-10-23 17:03:18;1666533845.534127;faceUp;0.200408935546875;0.6772003173828125;-0.3431549072265625;
2022-10-23 17:03:18;1666533845.584307;faceUp;0.738555908203125;1.396942138671875;0.58636474609375;
2022-10-23 17:03:18;1666533845.634501;faceUp;0.0850067138671875;0.6800994873046875;-0.0023040771484375;
2022-10-23 17:03:18;1666533845.6845732;faceUp;0.4730377197265625;0.815582275390625;0.004486083984375;
2022-10-23 17:03:18;1666533845.7346091;faceUp;0.925872802734375;0.9190521240234375;-0.192779541015625;
2022-10-23 17:03:18;1666533845.784827;faceUp;0.92474365234375;0.5756378173828125;-0.0376129150390625;
2022-10-23 17:03:18;1666533845.834859;faceUp;0.8579254150390625;0.48297119140625;-0.071197509765625;
2022-10-23 17:03:18;1666533845.8852448;faceUp;0.6607818603515625;0.58270263671875;-0.1224365234375;
2022-10-23 17:03:18;1666533845.935145;faceUp;0.6068267822265625;0.661895751953125;-0.1058807373046875;
2022-10-23 17:03:18;1666533845.985355;faceUp;0.61663818359375;0.72198486328125;0.03271484375;
2022-10-23 17:03:18;1666533846.035449;faceUp;0.654937744140625;0.8496551513671875;0.037200927734375;
2022-10-23 17:03:18;1666533846.0855799;faceUp;0.5128631591796875;0.834014892578125;-0.0503082275390625;
2022-10-23 17:03:18;1666533846.135654;faceUp;0.9063873291015625;1.134307861328125;-0.21240234375;
2022-10-23 17:03:18;1666533846.1858249;faceUp;1.326873779296875;0.950286865234375;0.114349365234375;
2022-10-23 17:03:18;1666533846.235997;faceUp;1.14154052734375;0.6605072021484375;0.800994873046875;
2022-10-23 17:03:18;1666533846.2860842;faceUp;0.759674072265625;1.0511016845703125;-0.2545166015625;
2022-10-23 17:03:18;1666533846.3361511;faceUp;0.5867767333984375;1.2021942138671875;-0.4138946533203125;
2022-10-23 17:03:18;1666533846.386509;faceUp;0.5009307861328125;0.83062744140625;-0.3358612060546875;
2022-10-23 17:03:18;1666533846.4364262;faceUp;0.5566558837890625;0.53570556640625;-0.0711822509765625;
2022-10-23 17:03:18;1666533846.4866052;faceUp;0.722625732421875;0.6697845458984375;-0.144256591796875;
2022-10-23 17:03:18;1666533846.537308;faceUp;0.0893096923828125;0.5792999267578125;-0.1834259033203125;
2022-10-23 17:03:18;1666533846.587185;faceUp;-0.2833251953125;0.148529052734375;0.0731353759765625;
2022-10-23 17:03:18;1666533846.63734;faceUp;1.4660797119140625;0.1721649169921875;1.3397369384765625;
2022-10-23 17:03:18;1666533846.6873431;faceUp;1.353759765625;0.455230712890625;0.4156494140625;
2022-10-23 17:03:18;1666533846.737344;faceUp;0.0475006103515625;0.718231201171875;0.3602294921875;
2022-10-23 17:03:18;1666533846.787451;faceUp;0.496368408203125;0.8640899658203125;-0.2661590576171875;
2022-10-23 17:03:18;1666533846.83747;faceUp;-0.085784912109375;0.6014556884765625;0.1268310546875;
2022-10-23 17:03:18;1666533846.887786;faceUp;0.7008514404296875;0.6746826171875;-0.179473876953125;
2022-10-23 17:03:18;1666533846.93769;faceUp;1.3737945556640625;1.303924560546875;-0.38580322265625;
2022-10-23 17:03:18;1666533846.9879131;faceUp;0.3686981201171875;0.793182373046875;0.2880859375;
2022-10-23 17:03:18;1666533847.0379782;faceUp;0.312591552734375;0.6510009765625;0.1800384521484375;
2022-10-23 17:03:18;1666533847.088141;faceUp;0.614837646484375;0.6748504638671875;0.0196533203125;
2022-10-23 17:03:18;1666533847.138218;faceUp;0.74261474609375;0.6656036376953125;-0.1633148193359375;
2022-10-23 17:03:18;1666533847.188395;faceUp;0.5121307373046875;0.5153961181640625;-0.084228515625;
2022-10-23 17:03:18;1666533847.238474;faceUp;0.6474456787109375;0.7710418701171875;-0.0362091064453125;
2022-10-23 17:03:18;1666533847.2886019;faceUp;1.1286773681640625;0.9192657470703125;0.1901702880859375;
2022-10-23 17:03:18;1666533847.338695;faceUp;1.146026611328125;0.907562255859375;-0.1645050048828125;
2022-10-23 17:03:18;1666533847.389223;faceUp;1.20257568359375;1.0254669189453125;-0.081817626953125;
2022-10-23 17:03:18;1666533847.439087;faceUp;0.6992340087890625;1.0497589111328125;0.4754180908203125;
2022-10-23 17:03:18;1666533847.489215;faceUp;0.9070281982421875;1.250244140625;-0.12701416015625;
2022-10-23 17:03:18;1666533847.539235;faceUp;0.5472412109375;1.514739990234375;-0.44073486328125;
2022-10-23 17:03:18;1666533847.589425;faceUp;0.2201690673828125;0.785430908203125;-0.6726226806640625;
2022-10-23 17:03:18;1666533847.63956;faceUp;0.4963531494140625;0.576416015625;0.4112548828125;
2022-10-23 17:03:18;1666533847.689715;faceUp;0.7679901123046875;0.5633544921875;-0.1616973876953125;
2022-10-23 17:03:18;1666533847.739729;faceUp;-0.0201263427734375;0.3854827880859375;-0.25604248046875;
2022-10-23 17:03:18;1666533847.789876;faceUp;-0.18499755859375;-0.0606842041015625;0.157318115234375;
2022-10-23 17:03:18;1666533847.8400521;faceUp;1.9047393798828125;0.220916748046875;0.8485870361328125;
2022-10-23 17:03:18;1666533847.890408;faceUp;1.27911376953125;0.5020599365234375;0.1093292236328125;
2022-10-23 17:03:18;1666533847.9404202;faceUp;0.220611572265625;1.7085418701171875;1.616363525390625;
2022-10-23 17:03:18;1666533847.9906101;faceUp;0.08331298828125;0.672607421875;-0.170196533203125;
2022-10-23 17:03:18;1666533848.040582;faceUp;0.2134246826171875;0.85467529296875;-0.1398773193359375;
2022-10-23 17:03:18;1666533848.090714;faceUp;0.536773681640625;1.00927734375;-0.2406463623046875;
2022-10-23 17:03:18;1666533848.140788;faceUp;0.78826904296875;0.9666900634765625;-0.261993408203125;
2022-10-23 17:03:18;1666533848.1909251;faceUp;1.121917724609375;0.8391571044921875;-0.2908477783203125;
2022-10-23 17:03:18;1666533848.241053;faceUp;0.6315765380859375;0.397979736328125;0.5263214111328125;
2022-10-23 17:03:18;1666533848.291185;faceUp;0.6017608642578125;0.50823974609375;-0.0475921630859375;
2022-10-23 17:03:18;1666533848.3412519;faceUp;0.599456787109375;0.631103515625;-0.1142730712890625;
2022-10-23 17:03:18;1666533848.391434;faceUp;0.614471435546875;0.637786865234375;-0.0236358642578125;
2022-10-23 17:03:18;1666533848.441506;faceUp;0.8062896728515625;0.7313995361328125;-0.0495758056640625;
2022-10-23 17:03:18;1666533848.491692;faceUp;1.0858306884765625;0.946441650390625;-0.0228271484375;
2022-10-23 17:03:18;1666533848.541772;faceUp;1.0724945068359375;1.1330108642578125;0.270263671875;
2022-10-23 17:03:18;1666533848.591954;faceUp;0.9725341796875;1.0078582763671875;0.09210205078125;
2022-10-23 17:03:18;1666533848.642065;faceUp;0.911224365234375;0.88214111328125;-0.2013092041015625;
2022-10-23 17:03:18;1666533848.6921802;faceUp;0.8354644775390625;1.1630096435546875;-0.1883544921875;
2022-10-23 17:03:18;1666533848.74227;faceUp;0.7478485107421875;1.30517578125;-0.498443603515625;
2022-10-23 17:03:18;1666533848.7924619;faceUp;0.606109619140625;0.5482025146484375;0.6497802734375;
2022-10-23 17:03:18;1666533848.8425322;faceUp;0.550445556640625;0.535491943359375;-0.1296844482421875;
2022-10-23 17:03:18;1666533848.8928819;faceUp;0.328094482421875;0.6526947021484375;-0.240325927734375;
2022-10-23 17:03:18;1666533848.942806;faceUp;-0.241546630859375;0.36572265625;-0.0955047607421875;
2022-10-23 17:03:18;1666533848.993112;faceUp;0.1834564208984375;0.0615997314453125;1.3125152587890625;
2022-10-23 17:03:18;1666533849.043066;faceUp;1.569976806640625;0.49615478515625;0.423828125;
2022-10-23 17:03:18;1666533849.093246;faceUp;1.178497314453125;0.307464599609375;0.03924560546875;
2022-10-23 17:03:18;1666533849.143301;faceUp;0.8501434326171875;1.5789031982421875;0.3812713623046875;
2022-10-23 17:03:18;1666533849.193478;faceUp;-0.3882904052734375;0.4217681884765625;0.1693267822265625;
2022-10-23 17:03:18;1666533849.243555;faceUp;0.2053985595703125;0.9595947265625;-0.0728912353515625;
2022-10-23 17:03:18;1666533849.293724;faceUp;0.6729278564453125;1.332244873046875;0.0113525390625;
2022-10-23 17:03:18;1666533849.343802;faceUp;0.869964599609375;1.0019683837890625;-0.299468994140625;
2022-10-23 17:03:18;1666533849.3941731;faceUp;0.9821014404296875;0.568084716796875;-0.134857177734375;
2022-10-23 17:03:18;1666533849.444059;faceUp;0.6535797119140625;0.26983642578125;0.249481201171875;
2022-10-23 17:03:18;1666533849.494252;faceUp;0.695220947265625;0.6652679443359375;-0.004730224609375;
2022-10-23 17:03:18;1666533849.544322;faceUp;0.571197509765625;0.661651611328125;-0.0873870849609375;
2022-10-23 17:03:18;1666533849.594517;faceUp;0.61181640625;0.6114501953125;0.0192413330078125;
2022-10-23 17:03:18;1666533849.644603;faceUp;0.8402557373046875;0.7072906494140625;-0.101104736328125;
2022-10-23 17:03:18;1666533849.694871;faceUp;1.0421295166015625;1.069854736328125;-0.0552215576171875;
2022-10-23 17:03:18;1666533849.7448292;faceUp;1.105560302734375;1.1347198486328125;0.668670654296875;
2022-10-23 17:03:18;1666533849.7950191;faceUp;1.038421630859375;0.8394012451171875;0.3238525390625;
2022-10-23 17:03:18;1666533849.845118;faceUp;0.953277587890625;1.0918426513671875;-0.1931304931640625;
2022-10-23 17:03:18;1666533849.895255;faceUp;0.81280517578125;1.43560791015625;-0.1748199462890625;
2022-10-23 17:03:18;1666533849.945514;faceUp;0.4405670166015625;0.9996185302734375;-0.4488677978515625;
2022-10-23 17:03:18;1666533849.995539;faceUp;0.2942962646484375;0.4803466796875;0.0294952392578125;
2022-10-23 17:03:18;1666533850.04558;faceUp;0.540618896484375;0.4726409912109375;-0.04315185546875;
2022-10-23 17:03:18;1666533850.095787;faceUp;0.341217041015625;0.48321533203125;-0.2873382568359375;
2022-10-23 17:03:18;1666533850.14585;faceUp;-0.173583984375;0.3176727294921875;-0.200408935546875;
2022-10-23 17:03:18;1666533850.196025;faceUp;0.6324462890625;0.3795013427734375;1.6746826171875;
2022-10-23 17:03:18;1666533850.2461262;faceUp;1.8461761474609375;0.3497467041015625;0.1930084228515625;
2022-10-23 17:03:18;1666533850.296279;faceUp;0.5346221923828125;0.5637664794921875;0.340667724609375;
2022-10-23 17:03:18;1666533850.346366;faceUp;0.9053802490234375;1.7572021484375;1.15350341796875;
2022-10-23 17:03:18;1666533850.396607;faceUp;-0.09002685546875;0.5143890380859375;-0.4847869873046875;
2022-10-23 17:03:18;1666533850.44717;faceUp;-0.0732574462890625;0.5997467041015625;0.26611328125;
2022-10-23 17:03:18;1666533850.497171;faceUp;0.541168212890625;1.1623077392578125;-0.1186370849609375;
2022-10-23 17:03:18;1666533850.547337;faceUp;0.8846893310546875;1.0002593994140625;-0.1946868896484375;
2022-10-23 17:03:18;1666533850.597316;faceUp;1.03497314453125;0.62945556640625;-0.0317535400390625;
2022-10-23 17:03:18;1666533850.647301;faceUp;0.79278564453125;0.3944244384765625;0.01239013671875;
2022-10-23 17:03:18;1666533850.6972709;faceUp;0.635711669921875;0.5635833740234375;-0.0758056640625;
2022-10-23 17:03:18;1666533850.7474341;faceUp;0.6294403076171875;0.712677001953125;-0.0548248291015625;
2022-10-23 17:03:18;1666533850.797548;faceUp;0.5742034912109375;0.6476593017578125;-0.0749359130859375;
2022-10-23 17:03:18;1666533850.847639;faceUp;0.5558624267578125;0.64593505859375;0.0345458984375;
2022-10-23 17:03:18;1666533850.89782;faceUp;0.77508544921875;0.90191650390625;-0.0491485595703125;
2022-10-23 17:03:18;1666533850.948075;faceUp;0.8848419189453125;1.0527191162109375;-0.0622100830078125;
2022-10-23 17:03:18;1666533850.998088;faceUp;1.204620361328125;0.86444091796875;0.3112945556640625;
2022-10-23 17:03:18;1666533851.04817;faceUp;1.2708587646484375;0.80963134765625;0.6347808837890625;
2022-10-23 17:03:18;1666533851.098328;faceUp;0.8953094482421875;1.0344696044921875;-0.1714935302734375;
2022-10-23 17:03:18;1666533851.1484141;faceUp;0.6788177490234375;1.272491455078125;-0.211181640625;
2022-10-23 17:03:18;1666533851.198576;faceUp;0.4993438720703125;0.9926605224609375;-0.5914459228515625;
2022-10-23 17:03:18;1666533851.248662;faceUp;0.4088134765625;0.56549072265625;0.205230712890625;
2022-10-23 17:03:18;1666533851.298925;faceUp;0.6165008544921875;0.6239166259765625;-0.026885986328125;
2022-10-23 17:03:18;1666533851.348954;faceUp;0.15899658203125;0.6493682861328125;-0.1515960693359375;
2022-10-23 17:03:18;1666533851.399098;faceUp;-0.1541290283203125;0.199951171875;-0.1375732421875;
2022-10-23 17:03:18;1666533851.449319;faceUp;0.80731201171875;0.026580810546875;1.439300537109375;
2022-10-23 17:03:18;1666533851.499352;faceUp;1.579345703125;0.7833709716796875;0.4137115478515625;
2022-10-23 17:03:18;1666533851.549437;faceUp;0.936767578125;0.924346923828125;0.462005615234375;
2022-10-23 17:03:18;1666533851.5996718;faceUp;0.0649261474609375;0.6519927978515625;0.122528076171875;
2022-10-23 17:03:18;1666533851.649706;faceUp;-0.2137298583984375;0.5985107421875;0.1183013916015625;
2022-10-23 17:03:18;1666533851.699852;faceUp;0.437957763671875;1.0046234130859375;-0.193572998046875;
2022-10-23 17:03:18;1666533851.749998;faceUp;0.8449859619140625;1.1918792724609375;-0.25506591796875;
2022-10-23 17:03:18;1666533851.800129;faceUp;1.182342529296875;0.8546905517578125;-0.185882568359375;
2022-10-23 17:03:18;1666533851.8501868;faceUp;0.7819976806640625;0.4186553955078125;0.1091766357421875;
2022-10-23 17:03:18;1666533851.900372;faceUp;0.596771240234375;0.5350189208984375;-0.06109619140625;
2022-10-23 17:03:18;1666533851.9504662;faceUp;0.619873046875;0.6769866943359375;-0.0847930908203125;
2022-10-23 17:03:18;1666533852.00086;faceUp;0.5515594482421875;0.6455841064453125;-0.0742950439453125;
2022-10-23 17:03:18;1666533852.050768;faceUp;0.6000518798828125;0.669464111328125;0.0596160888671875;
2022-10-23 17:03:18;1666533852.1009169;faceUp;0.7101287841796875;0.821563720703125;-0.0239105224609375;
2022-10-23 17:03:18;1666533852.1509771;faceUp;0.96136474609375;1.144378662109375;0.0213623046875;
2022-10-23 17:03:18;1666533852.201133;faceUp;1.472320556640625;1.04754638671875;0.4636993408203125;
2022-10-23 17:03:18;1666533852.2512012;faceUp;1.00323486328125;0.789459228515625;0.5831451416015625;
2022-10-23 17:03:18;1666533852.301453;faceUp;0.920684814453125;0.950103759765625;-0.260711669921875;
2022-10-23 17:03:18;1666533852.35145;faceUp;0.7223358154296875;1.123504638671875;-0.2802734375;
2022-10-23 17:03:18;1666533852.401651;faceUp;0.5580902099609375;0.9227294921875;-0.40118408203125;
2022-10-23 17:03:18;1666533852.451713;faceUp;0.7816162109375;0.611602783203125;0.3047943115234375;
2022-10-23 17:03:18;1666533852.502071;faceUp;0.6988983154296875;0.5740509033203125;-0.1006927490234375;
2022-10-23 17:03:18;1666533852.55199;faceUp;0.1915283203125;0.688079833984375;-0.3549041748046875;
2022-10-23 17:03:18;1666533852.602099;faceUp;-0.1784515380859375;0.3277435302734375;-0.069488525390625;
2022-10-23 17:03:18;1666533852.6523318;faceUp;0.3738861083984375;0.132598876953125;1.4363861083984375;
2022-10-23 17:03:18;1666533852.702417;faceUp;1.53143310546875;0.5262908935546875;0.3513946533203125;
2022-10-23 17:03:18;1666533852.752487;faceUp;0.8029632568359375;0.333892822265625;-0.0206146240234375;
2022-10-23 17:03:18;1666533852.802721;faceUp;1.569793701171875;1.236053466796875;2.1464691162109375;
2022-10-23 17:03:18;1666533852.852714;faceUp;-0.070953369140625;0.7080230712890625;-0.0251922607421875;
2022-10-23 17:03:18;1666533852.902904;faceUp;0.1480712890625;0.5780029296875;-0.0179443359375;
2022-10-23 17:03:18;1666533852.952973;faceUp;0.7093505859375;1.238311767578125;-0.136444091796875;
2022-10-23 17:03:18;1666533853.003364;faceUp;0.999420166015625;0.9746246337890625;-0.1894683837890625;
2022-10-23 17:03:18;1666533853.053251;faceUp;0.9197540283203125;0.5103759765625;-0.0532989501953125;
2022-10-23 17:03:18;1666533853.1034179;faceUp;0.65509033203125;0.465301513671875;-0.0432891845703125;
2022-10-23 17:03:18;1666533853.1535;faceUp;0.6213226318359375;0.676971435546875;-0.0587005615234375;
2022-10-23 17:03:18;1666533853.2037082;faceUp;0.5487060546875;0.6538543701171875;-0.07244873046875;
2022-10-23 17:03:18;1666533853.253763;faceUp;0.512542724609375;0.627777099609375;0.0154266357421875;
2022-10-23 17:03:18;1666533853.3038301;faceUp;0.59027099609375;0.7374267578125;-0.0265655517578125;
2022-10-23 17:03:18;1666533853.353929;faceUp;0.8271484375;0.938720703125;-0.1564788818359375;
2022-10-23 17:03:18;1666533853.404203;faceUp;1.2458953857421875;0.9569549560546875;0.0926361083984375;
2022-10-23 17:03:18;1666533853.454278;faceUp;1.4316558837890625;0.9239044189453125;0.219085693359375;
2022-10-23 17:03:18;1666533853.50455;faceUp;0.9235992431640625;0.9542388916015625;0.128814697265625;
2022-10-23 17:03:18;1666533853.554638;faceUp;0.9040374755859375;1.1459808349609375;-0.31439208984375;
2022-10-23 17:03:18;1666533853.6046882;faceUp;0.6379852294921875;1.1379241943359375;-0.500274658203125;
2022-10-23 17:03:18;1666533853.6547441;faceUp;0.4575653076171875;0.73602294921875;-0.371124267578125;
2022-10-23 17:03:18;1666533853.704946;faceUp;0.6571807861328125;0.5356292724609375;-0.0909423828125;
2022-10-23 17:03:18;1666533853.755048;faceUp;0.367462158203125;0.6589813232421875;-0.1770782470703125;
2022-10-23 17:03:18;1666533853.8052058;faceUp;-0.0034332275390625;0.5989227294921875;-0.3036956787109375;
2022-10-23 17:03:18;1666533853.855272;faceUp;-0.40264892578125;0.196136474609375;0.1371307373046875;
2022-10-23 17:03:18;1666533853.905447;faceUp;1.600311279296875;0.4681243896484375;1.209320068359375;
2022-10-23 17:03:18;1666533853.9555368;faceUp;1.4549102783203125;0.4099884033203125;0.3415374755859375;
2022-10-23 17:03:18;1666533854.005735;faceUp;1.6890106201171875;1.5940093994140625;0.9055023193359375;
2022-10-23 17:03:18;1666533854.055999;faceUp;-0.364898681640625;0.50653076171875;-0.29571533203125;
2022-10-23 17:03:18;1666533854.105984;faceUp;-0.1676483154296875;0.6444244384765625;0.1302642822265625;
2022-10-23 17:03:18;1666533854.156036;faceUp;0.404754638671875;1.1555023193359375;-0.2637481689453125;
2022-10-23 17:03:18;1666533854.206214;faceUp;0.7083282470703125;1.1051788330078125;-0.2093048095703125;
2022-10-23 17:03:18;1666533854.256318;faceUp;1.0849609375;0.8885498046875;-0.2558135986328125;
2022-10-23 17:03:18;1666533854.306504;faceUp;0.876434326171875;0.3544921875;0.2700347900390625;
2022-10-23 17:03:18;1666533854.3571692;faceUp;0.6944732666015625;0.4675445556640625;-0.1358489990234375;
2022-10-23 17:03:18;1666533854.407082;faceUp;0.624237060546875;0.6800384521484375;-0.0603179931640625;
2022-10-23 17:03:18;1666533854.457355;faceUp;0.545654296875;0.633453369140625;-0.077362060546875;
2022-10-23 17:03:18;1666533854.5073628;faceUp;0.5936737060546875;0.67547607421875;0.0152130126953125;
2022-10-23 17:03:18;1666533854.5573459;faceUp;0.748077392578125;0.786956787109375;-0.0342559814453125;
2022-10-23 17:03:18;1666533854.607491;faceUp;1.07806396484375;1.066162109375;-0.1066436767578125;
2022-10-23 17:03:18;1666533854.657392;faceUp;1.133331298828125;0.917999267578125;0.6591949462890625;
2022-10-23 17:03:18;1666533854.707509;faceUp;1.0394744873046875;0.9093475341796875;0.376251220703125;
2022-10-23 17:03:18;1666533854.757667;faceUp;0.85693359375;1.0171966552734375;-0.1671142578125;
2022-10-23 17:03:18;1666533854.807746;faceUp;0.7678375244140625;1.3284912109375;-0.1750335693359375;
2022-10-23 17:03:18;1666533854.85782;faceUp;0.5798797607421875;1.1670074462890625;-0.5172119140625;
2022-10-23 17:03:18;1666533854.90803;faceUp;0.43133544921875;0.587432861328125;0.186370849609375;
2022-10-23 17:03:18;1666533854.958068;faceUp;0.6329193115234375;0.5423736572265625;0.032958984375;
2022-10-23 17:03:18;1666533855.0082679;faceUp;0.2251434326171875;0.5510101318359375;-0.321685791015625;
2022-10-23 17:03:18;1666533855.058394;faceUp;-0.235626220703125;0.34222412109375;-0.2146759033203125;
2022-10-23 17:03:18;1666533855.108525;faceUp;-0.019012451171875;0.108673095703125;0.9253692626953125;
2022-10-23 17:03:18;1666533855.158627;faceUp;2.0154266357421875;0.769866943359375;0.302581787109375;
2022-10-23 17:03:18;1666533855.208926;faceUp;0.8026885986328125;0.556793212890625;0.37164306640625;
2022-10-23 17:03:18;1666533855.2588382;faceUp;1.3365478515625;1.048583984375;0.902740478515625;
2022-10-23 17:03:18;1666533855.308989;faceUp;-0.4762725830078125;0.47442626953125;0.243377685546875;
2022-10-23 17:03:18;1666533855.359065;faceUp;0.23419189453125;0.9928436279296875;-0.2128143310546875;
2022-10-23 17:03:18;1666533855.409305;faceUp;0.6235809326171875;1.1142730712890625;0.0773162841796875;
2022-10-23 17:03:18;1666533855.459361;faceUp;0.812530517578125;0.9710845947265625;-0.2628631591796875;
2022-10-23 17:03:18;1666533855.5095282;faceUp;1.076385498046875;0.6650238037109375;-0.12506103515625;
2022-10-23 17:03:18;1666533855.5595899;faceUp;0.696380615234375;0.3246612548828125;0.1475677490234375;
2022-10-23 17:03:18;1666533855.60977;faceUp;0.707122802734375;0.6246185302734375;-0.0560150146484375;
2022-10-23 17:03:18;1666533855.6598759;faceUp;0.632293701171875;0.676422119140625;-0.0643768310546875;
2022-10-23 17:03:18;1666533855.710043;faceUp;0.612823486328125;0.598724365234375;-0.100860595703125;
2022-10-23 17:03:18;1666533855.76011;faceUp;0.5971832275390625;0.59771728515625;0.004486083984375;
2022-10-23 17:03:18;1666533855.8103108;faceUp;0.893463134765625;0.9488067626953125;-0.051177978515625;
2022-10-23 17:03:18;1666533855.8603802;faceUp;0.9869537353515625;1.1011199951171875;-0.1303253173828125;
2022-10-23 17:03:18;1666533855.9105291;faceUp;1.207794189453125;1.0115814208984375;0.6209716796875;
2022-10-23 17:03:18;1666533855.960618;faceUp;1.02825927734375;0.8738861083984375;0.5901031494140625;
2022-10-23 17:03:18;1666533856.010881;faceUp;0.7706298828125;1.0343017578125;-0.1229095458984375;
2022-10-23 17:03:18;1666533856.060948;faceUp;0.6556243896484375;1.267486572265625;-0.2335662841796875;
2022-10-23 17:03:18;1666533856.1111321;faceUp;0.4615020751953125;0.856719970703125;-0.59295654296875;
2022-10-23 17:03:18;1666533856.1611152;faceUp;0.5162200927734375;0.5033111572265625;0.20526123046875;
2022-10-23 17:03:18;1666533856.2114658;faceUp;0.73748779296875;0.6668243408203125;-0.0081939697265625;
2022-10-23 17:03:18;1666533856.261385;faceUp;0.1727752685546875;0.55841064453125;-0.18890380859375;
2022-10-23 17:03:18;1666533856.3115869;faceUp;-0.1674041748046875;0.3540191650390625;-0.0628204345703125;
2022-10-23 17:03:18;1666533856.361649;faceUp;0.8122100830078125;0.2996368408203125;1.368072509765625;
2022-10-23 17:03:18;1666533856.411892;faceUp;1.7647857666015625;0.533416748046875;0.2636566162109375;
2022-10-23 17:03:18;1666533856.461853;faceUp;0.5775146484375;0.350921630859375;0.0101776123046875;
2022-10-23 17:03:18;1666533856.512114;faceUp;1.257781982421875;1.6744384765625;2.4673614501953125;
2022-10-23 17:03:18;1666533856.562151;faceUp;0.0097808837890625;0.490936279296875;-0.04449462890625;
2022-10-23 17:03:18;1666533856.6123319;faceUp;0.2297515869140625;0.8607330322265625;-0.0633697509765625;
2022-10-23 17:03:18;1666533856.662431;faceUp;0.6895294189453125;1.0677642822265625;-0.0020751953125;
2022-10-23 17:03:18;1666533856.71259;faceUp;0.7860260009765625;0.8444671630859375;-0.1838836669921875;
2022-10-23 17:03:18;1666533856.762676;faceUp;1.032745361328125;0.633575439453125;-0.107940673828125;
2022-10-23 17:03:18;1666533856.812862;faceUp;0.72369384765625;0.3659515380859375;0.0578155517578125;
2022-10-23 17:03:18;1666533856.862957;faceUp;0.6661529541015625;0.6308135986328125;-0.0357513427734375;
2022-10-23 17:03:18;1666533856.913094;faceUp;0.61700439453125;0.7071380615234375;-0.074615478515625;
2022-10-23 17:03:18;1666533856.963211;faceUp;0.49713134765625;0.618316650390625;-0.0303802490234375;
2022-10-23 17:03:18;1666533857.013406;faceUp;0.6199188232421875;0.6984100341796875;-0.00616455078125;
2022-10-23 17:03:18;1666533857.063473;faceUp;0.804168701171875;0.8709259033203125;-0.09344482421875;
2022-10-23 17:03:18;1666533857.113625;faceUp;1.102783203125;1.099822998046875;-0.155517578125;
2022-10-23 17:03:18;1666533857.16368;faceUp;1.428863525390625;0.834197998046875;0.8025970458984375;
2022-10-23 17:03:18;1666533857.213862;faceUp;0.9378662109375;0.8219146728515625;0.451324462890625;
2022-10-23 17:03:18;1666533857.263929;faceUp;0.7895050048828125;1.034515380859375;-0.135589599609375;
2022-10-23 17:03:18;1666533857.314146;faceUp;0.6968536376953125;1.2748260498046875;-0.21099853515625;
2022-10-23 17:03:18;1666533857.364244;faceUp;0.7833099365234375;0.96258544921875;0.0425872802734375;
2022-10-23 17:03:18;1666533857.414403;faceUp;0.6429290771484375;0.6253509521484375;-0.0018463134765625;
2022-10-23 17:03:18;1666533857.464449;faceUp;0.65423583984375;0.5799713134765625;-0.13946533203125;
2022-10-23 17:03:18;1666533857.514742;faceUp;0.066680908203125;0.5475311279296875;-0.204010009765625;
2022-10-23 17:03:18;1666533857.564705;faceUp;-0.0269927978515625;0.13043212890625;-0.0583648681640625;
2022-10-23 17:03:18;1666533857.6149201;faceUp;0.976348876953125;0.2132720947265625;1.732330322265625;
2022-10-23 17:03:18;1666533857.664958;faceUp;1.2142486572265625;0.313018798828125;0.3562164306640625;
2022-10-23 17:03:18;1666533857.715129;faceUp;0.6062774658203125;0.415313720703125;0.3489990234375;
2022-10-23 17:03:18;1666533857.7651958;faceUp;1.237335205078125;1.3131256103515625;1.187774658203125;
